time,seconds_elapsed,z,y,x
1650870606648356600,0.170356689453125,-0.08695873700678348,-0.019515432330965993,0.06783858760371804
1650870606658365700,0.18036572265625,-0.06320610549747943,-0.03243687322437763,0.04614011214524507
1650870606668375800,0.190375732421875,-0.05537292765378952,-0.004262333619594574,0.04399710876718163
1650870606678385700,0.2003857421875,-0.11704583223462105,-0.021947043392062184,0.044706718341261144
1650870606688395800,0.210395751953125,-0.14223814115822314,-0.06557225010693073,0.14307619941756128
1650870606698404600,0.220404541015625,-0.11399228988289832,-0.07090075165331364,0.10808365036100148
1650870606708414500,0.23041455078125,-0.05757072995901107,-0.03636135319173336,0.004506079247593879
1650870606718424600,0.240424560546875,-0.01710194144845009,-0.010140285742282866,-0.0612481032975018
1650870606728434700,0.2504345703125,-0.0355839390784502,0.006101239484548568,-0.019828736063838004
1650870606738443500,0.260443603515625,-0.10420622440576553,-0.03488718898594379,-0.00934153658002615
1650870606748453600,0.27045361328125,-0.09834463889598846,-0.0430956298828125,-0.005942834052443504
1650870606758463700,0.280463623046875,-0.07621697824001311,-0.04220423400104046,0.05634615660011768
1650870606768473600,0.2904736328125,-0.045615503749251364,-0.08342822479307652,0.05082520122155547
1650870606778483700,0.300483642578125,-0.0547112488746643,-0.06938041021823883,-0.00024009236618876455
1650870606788492800,0.310492919921875,-0.05202127913832664,-0.034059505990147586,-0.048017888715863224
1650870606798502700,0.320502685546875,-0.1333306120812893,0.004095744881033897,-0.0205031281940639
1650870606808512800,0.3305126953125,-0.2050128695011139,0.023153496572375296,-0.03331482510268688
1650870606818522600,0.340522705078125,-0.09540274022519588,-0.008563245683908462,-0.11150485698133707
1650870606828531700,0.35053173828125,-0.16055355004966257,0.0351221667855978,-0.18273250250145792
1650870606838541800,0.360541748046875,-0.141940034994483,0.0011766425639390945,-0.10220599049925803
1650870606848581600,0.37058154296875,-0.053473231512308116,-0.08924772472679615,0.04698474627584219
1650870606858591500,0.380591552734375,0.04959726686179638,-0.0813718767851591,0.07402370597943664
1650870606868601600,0.3906015625,0.08981880261301994,-0.03375438556373119,0.024328970092535016
1650870606878611500,0.400611572265625,0.07838438540697097,0.030050270348787305,-0.04732537640705704
1650870606888620500,0.41062060546875,0.02143500221669674,0.0428472080796957,-0.034717093116045
1650870606898630700,0.420630615234375,-0.029511341166496275,0.001835398733615875,0.001995557731389999
1650870606908640500,0.430640625,0.004457563930749893,-0.011924246549606322,-0.036140403917431826
1650870606918650600,0.440650634765625,0.022744915771484374,-0.020157237365841865,-0.011074643982946872
1650870606928660700,0.45066064453125,-0.028313071292638776,-0.00839081172645092,-0.05497603729069232
1650870606938669600,0.460669677734375,-0.08906067772209644,0.04335574212372303,-0.12563231266364455
1650870606948679700,0.4706796875,-0.07152268294394015,0.11546645408868789,-0.17574688139781355
1650870606958689800,0.480689697265625,-0.03448269983828067,-0.010308043524622917,-0.10687544361501931
1650870606968699600,0.49069970703125,0.0029296237111091613,-0.07167582767903805,-0.05513064333051443
1650870606978708700,0.500708740234375,0.13584873238205908,-0.05856617073714733,-0.007857143241167068
1650870606988718800,0.51071875,0.18040099081397057,-0.11328034222126006,0.05506941466256976
1650870606998728700,0.520728759765625,0.2112871274650097,-0.13224281684458256,0.06449672982990741
1650870607008738600,0.530738525390625,0.27185528567433354,0.0485503881573677,-0.1282540394693613
1650870607018747600,0.54074755859375,0.3458054880261421,0.02065115836262703,-0.18268208748847245
1650870607028757500,0.550757568359375,0.5041659119457006,0.032305940321087835,-0.2333155655302107
1650870607038767600,0.560767578125,0.6020633915960788,0.23611352568566799,-0.5009865512572229
1650870607048777500,0.570777587890625,1.0383043528288602,0.3156687084376812,-0.7095400159746408
1650870607058786600,0.58078662109375,0.598605360096693,0.3702051852673292,-0.33499081015363336
1650870607068787000,0.590786865234375,0.4846037178635597,0.09103986884057522,0.31290742703080177
1650870607078796800,0.600796875,-0.6684604020893573,-0.06667407386898994,0.13683745115846394
1650870607088807000,0.610806884765625,-0.8721844008237123,-0.02714578107893467,1.7426006229311226
1650870607098816800,0.620816650390625,-0.4395516932159662,-0.22740005787611006,1.2768179253935814
1650870607108825900,0.630825927734375,0.37252924430072304,0.27707681971490383,0.6147688516512513
1650870607118836000,0.6408359375,1.1314163517683744,0.9167077254220842,0.2029829711087048
1650870607128845800,0.650845703125,1.8442022177964448,1.1985846388950943,-0.10716288225427269
1650870607138856000,0.66085595703125,1.9115104979157447,1.2110422616690397,0.09867284793704748
1650870607148865000,0.670864990234375,1.6029752946197986,1.0182993834152818,0.87604925955832
1650870607158905900,0.68090576171875,1.0546896704405546,0.8459265084952116,1.192850479157269
1650870607168915000,0.6909150390625,0.4031792341083288,0.5293906618341804,1.0824600131586193
1650870607178925000,0.700925048828125,-0.08273264374434948,0.4307736357375979,0.21259791780263185
1650870607188935200,0.71093505859375,-0.47776948792934415,0.22349048321694134,-0.8420718788936734
1650870607198945000,0.720945068359375,-1.466843653643131,1.8735954855412245,0.7693070869341492
1650870607208953900,0.730953857421875,-2.3492986885905265,2.981137917508185,0.46965983123183247
1650870607218964000,0.7409638671875,-2.8596839134424923,1.9852023415923117,-0.19226137834712861
1650870607228973800,0.750973876953125,-3.6923207322537897,0.8756322031900287,0.29603344911932944
1650870607238984000,0.76098388671875,-4.391634537768364,0.1282271514624357,1.72557817645967
1650870607248993800,0.770993896484375,-4.347752725943923,0.6169979258775711,3.178320824036002
1650870607259003000,0.7810029296875,-3.7447558528900142,1.6033859212473034,3.42745223672688
1650870607269013000,0.791012939453125,-3.1944132961809633,1.91223735088557,2.8388685044288633
1650870607279022800,0.80102294921875,-2.8896640411645174,1.8490622250482438,2.7405843635484572
1650870607289033000,0.811032958984375,-2.5040122804403304,1.7695161023855208,2.499027770026028
1650870607299042000,0.8210419921875,-2.1646868020832537,1.8792846370935439,2.033139566287398
1650870607309052000,0.831052001953125,-1.3861135818928478,2.0119076854273676,1.885709117183089
1650870607319062000,0.84106201171875,-0.9736381116509437,1.600997857066989,2.2515794881165028
1650870607329071900,0.85107177734375,-0.5711737478137016,0.9351113971188664,2.60593594686687
1650870607339080700,0.861080810546875,0.24288521177768707,0.5210632707327604,2.6881027734220027
1650870607349090800,0.8710908203125,1.2054361122250556,0.27121581872701644,2.2808526366129516
1650870607359101000,0.881100830078125,2.2236253132641313,0.1955591047182679,1.9255705874502658
1650870607369110800,0.89111083984375,2.852444025316834,0.1301511052623391,1.9182529579132794
1650870607379119900,0.901119873046875,3.0680063458830116,0.24984862104952335,1.5826128900706766
1650870607389130000,0.9111298828125,3.0437691457271576,0.44776217993944883,1.0798922084972262
1650870607399139800,0.921139892578125,3.2042730114161966,0.7139443884134292,0.3000958762526512
1650870607409150000,0.93114990234375,2.760613882881403,1.2275088278234003,-0.8349573707133531
1650870607419159800,0.941159912109375,2.8859342069864273,1.8682076550230382,-1.9809803399831056
1650870607429169000,0.9511689453125,2.968579756969213,2.502284141473472,-3.038324324324727
1650870607439179000,0.961178955078125,3.166259214842319,3.029494828920066,-4.1678669911757105
1650870607449188900,0.97118896484375,3.382506595063209,3.194294345976412,-4.394226600088179
1650870607459229000,0.98122900390625,3.0562603785097595,2.749091495130956,-4.009628147809207
1650870607469239000,0.991239013671875,2.2402204742342233,1.8541931581959128,-3.2628587636366486
1650870607479249000,1.001248779296875,0.5725538039952516,0.8048682296589016,-2.4963652728185055
1650870607489257700,1.0112578125,-1.077835568228364,-0.11717501157224178,-2.1884829804733394
1650870607499267800,1.021267822265625,-1.7064479440540075,-0.31866935155838727,-2.6872838582545517
1650870607509277700,1.031277587890625,-1.0164718757271767,-0.688017627735436,-3.455305873814225
1650870607519287800,1.041287841796875,0.2971002015680074,-1.348680069424957,-4.334828362441063
1650870607529297000,1.051296875,0.6924310602635145,-1.53373429287225,-4.558616951821744
1650870607539306800,1.061306640625,0.3001747867077589,-1.8710098529621957,-3.994090679198503
1650870607549316900,1.07131689453125,-0.9694909288436174,-2.3641006825335324,-3.9730344471663233
1650870607559327000,1.081326904296875,-1.852830929931998,-2.788297424098849,-3.473066571432352
1650870607569336800,1.0913369140625,-1.708869618242979,-3.365777578580379,-2.8021964778527617
1650870607579346000,1.101345947265625,-0.5883060844004154,-4.023401821617782,-1.8943825452432035
1650870607589356000,1.11135595703125,-0.03630816169977188,-4.29652639657557,-1.1697376068562269
1650870607599366000,1.121365966796875,0.4590577731966972,-4.262664166723192,-0.6598299363881349
1650870607609376000,1.1313759765625,0.9670967271834612,-4.021625751855969,-0.30233751769959927
1650870607619385000,1.141385009765625,1.0867477734804152,-3.8515702139675616,0.4323422002285719
1650870607629395000,1.15139501953125,1.0553723920077085,-3.787338272553682,1.144272326210141
1650870607639405000,1.161405029296875,0.9678379009395838,-3.6248026087760925,1.4207944346517323
1650870607649415000,1.171414794921875,0.15400573584139346,-3.1867011143684385,1.1114096287891269
1650870607659423700,1.181423828125,-0.9101707248687744,-2.467194415652752,0.9888365575656294
1650870607669433900,1.191433837890625,-1.3409960907936096,-1.6062648376844821,0.7428133400231599
1650870607679443700,1.201443603515625,-1.6778350130319595,-0.9666685648992657,0.38341362640857696
1650870607689453800,1.211453857421875,-2.3456746528744694,-1.3298060037374495,0.611725538432598
1650870607699463000,1.221462890625,-6.447000548911094,-2.776960622048378,4.825743747669458
1650870607709472800,1.23147265625,-9.830441209954023,-1.4709125105172396,5.645277339279652
1650870607719483000,1.24148291015625,-7.933075557246804,0.697801720451191,3.6296202381908893
1650870607729493000,1.251492919921875,-2.0122809026539326,2.377770457576215,1.2614125587299465
1650870607739502800,1.2615029296875,4.250414633741975,1.9703020018413662,-1.31575205168277
1650870607749512000,1.271511962890625,7.328747143328189,1.105660125351697,-2.3856270162954925
1650870607759553000,1.281552978515625,6.819764186489581,0.8020924813352525,-1.4472656774699688
1650870607769562000,1.29156201171875,5.015148129150271,0.5741608008004725,-0.33373452648222446
1650870607779572000,1.301572021484375,1.8749328716248272,-0.4293928489036858,0.5938777470529079
1650870607789582000,1.31158203125,-0.21565876667797565,-0.8112669907853007,1.3703572098344563
1650870607799592000,1.321592041015625,-1.0042506920576095,-0.15069821872860192,1.4100222807466982
1650870607809600800,1.331600830078125,-1.0079963083267212,1.620081912243366,-0.46511751162707804
1650870607819611000,1.34161083984375,0.1685994938611984,3.400415176719427,-2.4253221900850535
1650870607829620700,1.351620849609375,-0.016731354570388792,3.7100516192555424,-2.259332001939416
1650870607839630800,1.361630859375,-2.0692285322785375,3.2466607852905986,-0.3529986144006252
1650870607849640000,1.371639892578125,-7.1332836079388855,0.9445647235102951,5.716779563957452
1650870607859649800,1.38164990234375,-5.029552502077817,-0.6641917848594486,6.868541953662038
1650870607869660000,1.391659912109375,-2.0215198556423184,-1.4192431135565042,1.250005321791768
1650870607879670000,1.401669921875,-0.15267127236723899,-0.38164837030172344,-0.9590765023350715
1650870607889680000,1.411679931640625,0.17365560820698736,0.06507321454361081,-0.5828536642134189
1650870607899689000,1.42168896484375,0.9966600907981396,-0.6246764976814388,-0.007754267388582229
1650870607909699000,1.431698974609375,1.843288025560975,-0.8744552683651446,0.187613990932703
1650870607919709000,1.441708984375,2.277263379949331,-0.4347140439264476,0.9020107992887496
1650870607929719000,1.451718994140625,0.9629963061273098,-0.3612582009628415,1.9803402885138988
1650870607939728100,1.46172802734375,-0.03256196090877056,-0.5222711852177977,1.4321785829752682
1650870607949738000,1.471738037109375,-0.6158610308021306,-0.48802156348302955,0.6026046588659286
1650870607959748000,1.481748046875,-0.8709007907539605,-0.09690233113318682,0.05301964252591133
1650870607969758000,1.491758056640625,-0.9823907424271107,0.5186316596716642,-0.8372872749656438
1650870607979766800,1.501766845703125,-1.2054641692757606,1.1698002968288956,-1.7694705096781254
1650870607989777000,1.51177685546875,-1.0114975944459437,1.3448267549976707,-1.8074626789420842
1650870607999786800,1.521786865234375,-0.7761661590486765,1.091936574295163,-1.771675326246023
1650870608009796900,1.531796875,-0.17194763524532317,0.5230002301447093,-1.5022259326696394
1650870608019807000,1.541806884765625,1.0343804573833941,0.18159363466463982,-2.5603525918215513
1650870608029815800,1.55181591796875,3.7193484399110077,0.30960904307253656,-5.379639612945914
1650870608039826000,1.561825927734375,5.809444988173246,0.1015883517912589,-6.132890175831317
1650870608049866000,1.571865966796875,6.502811867982149,-0.242629775711894,-5.739572410523891
1650870608059875800,1.581875732421875,6.857056683051586,-0.44040940602384504,-5.136752063080668
1650870608069889500,1.5918896484375,6.869809197118878,-0.37208033148944375,-5.289691630995273
1650870608079899600,1.601899658203125,-15.717514212208986,-3.005220219363272,15.194859288370608
1650870608089908500,1.611908447265625,9.777960496610403,0.9332618967946619,-2.881712205377221
1650870608099918600,1.621918701171875,11.571782188212872,0.6233053554587066,-4.068970855876803
1650870608109928700,1.6319287109375,-11.953299625611304,0.6844946412410586,7.336874920204282
1650870608119938600,1.6419384765625,7.581423681280016,0.7546344184592366,-1.5069181821390984
1650870608129947600,1.65194775390625,-4.922750415959954,-1.0322503134869039,3.482486726206541
1650870608139957800,1.661957763671875,-0.9234183289766311,-0.7369974933512509,1.9718647211134432
1650870608149967600,1.671967529296875,0.729042004302144,-0.2693342975630425,2.018165869039297
1650870608159977500,1.6819775390625,-0.142048171544075,-0.060032900555152445,3.706449795371294
1650870608169987300,1.6919873046875,-0.009904138898849486,0.30020244189966466,3.17023951665014
1650870608179996400,1.701996337890625,-1.1583891143679619,0.8860258791714907,0.9795128489032388
1650870608190006500,1.712006591796875,9.951891999149321,1.0779278496216982,-2.9997148999452588
1650870608200016400,1.722016357421875,0.303876563835144,-0.9134490889523178,2.103808555011451
1650870608210026500,1.732026611328125,-4.027287430879474,0.6879207432322204,3.320415172809362
1650870608220035600,1.74203564453125,-2.1295786638230085,0.8544234109446406,3.3440643439441917
1650870608230045400,1.75204541015625,0.03742752111852169,0.2334646551446989,0.2421820319443941
1650870608240055600,1.7620556640625,0.3827525321513414,0.2996110884103924,0.0831459007203579
1650870608250065700,1.772065673828125,-0.34475451766848564,0.17303217907901852,-0.08321721239089966
1650870608260074500,1.782074462890625,-0.5358727173298597,0.03647822103705257,0.14928689062595366
1650870608270084600,1.792084716796875,-0.05361527033150196,0.019656046378053724,0.03242868991792202
1650870608280094700,1.8020947265625,0.5644377175569534,0.00257485545668751,-0.015102584324777126
1650870608290104600,1.8121044921875,0.6271469794481992,-0.09461261276081204,0.31542730089724064
1650870608300113400,1.822113525390625,0.537339867272973,-0.15030753891058266,0.43322219793349503
1650870608310123500,1.83212353515625,0.9784446351498365,-0.07488119959160686,0.341357568706572
1650870608320133400,1.84213330078125,0.8724263928860425,-0.09570501110740005,0.27773616040647026
1650870608330143500,1.8521435546875,0.12810790899693966,-0.1094939920829609,0.24015374098718165
1650870608340153300,1.8621533203125,-1.1802642615675925,-0.028037976111727765,-0.23566227478682994
1650870608350193400,1.872193359375,-1.0325339527338742,-0.0058443010148359455,-0.4885618078395724
1650870608360203500,1.88220361328125,-0.3369832991451025,0.08776018958278,0.08707622590661049
1650870608370212600,1.892212646484375,-0.303444017636776,0.13815649786777792,-0.01605097109079361
1650870608380222500,1.902222412109375,-0.3552776652485132,0.065715129176341,-0.4090364357039332
1650870608390232600,1.912232666015625,-0.09750818807184695,-0.007880999040789902,-0.5100447408512234
1650870608400242700,1.92224267578125,-0.268210207170248,0.08585676711425184,-0.9989368035584688
1650870608410251500,1.93225146484375,-0.2137561479270458,-0.15813848826456814,-0.1795075491055846
1650870608420261600,1.94226171875,0.10025368738770485,0.06556863337773829,0.5003378780901432
1650870608430271700,1.952271728515625,0.2742728682100773,-0.22007176081463695,0.7593921343803405
1650870608440281600,1.962281494140625,0.2100923647224903,-0.11083996333181857,0.7532428179703653
1650870608450290400,1.97229052734375,0.23579320769011972,-0.1384539829770103,-0.10456395180225371
1650870608460300500,1.982300537109375,-0.2031558434575796,-0.22072123769931493,-0.4931555653706193
1650870608470310400,1.992310302734375,-0.5761784242331981,-0.25904428288545456,-0.8990791297510266
1650870608480320500,2.002320556640625,-0.4904080202281475,-0.1862179699970409,-1.0002383876763283
1650870608490330400,2.012330322265625,-0.2983703676342964,-0.0888383036756888,-0.7497127441480755
1650870608500339500,2.02233935546875,-0.08750000427663326,0.014867862253449856,-0.4455491800650954
1650870608510349600,2.032349609375,0.04241875353455543,0.06730006028022617,-0.30879210066646334
1650870608520359400,2.042359375,-0.10917232238054275,0.13153528962973504,-0.19332710788249968
1650870608530369500,2.05236962890625,-0.3785883982092142,0.03041066462639719,-0.38200405187159775
1650870608540378600,2.062378662109375,-0.4503676862627268,-0.17320658579785375,-1.0096564966239034
1650870608550388500,2.072388427734375,-0.5621674345374107,-0.42316063998322934,-2.2336242908395825
1650870608560398600,2.082398681640625,-0.8579670749008655,-0.5674375569600612,-3.1204169165998694
1650870608570408700,2.09240869140625,-0.502649077641964,-0.35966552494391796,-2.245883030040562
1650870608580417500,2.10241748046875,-0.027666005560755727,-0.010975421392172575,-1.2502161880634723
1650870608590427600,2.112427734375,0.6707914753854274,0.23011059547644108,-0.5865918278284371
1650870608600437800,2.122437744140625,1.3752894055396319,0.22046138118673114,0.1583225761272013
1650870608610447600,2.132447509765625,1.8308505687922239,0.07946560477241874,1.5915977221675217
1650870608620456400,2.14245654296875,1.9615198527097701,0.012133450587186961,2.742696825657785
1650870608630466600,2.152466552734375,1.6501234147638082,0.09798292944412677,3.3005396749943494
1650870608640507400,2.16250732421875,-15.319575216841697,6.174901517608761,9.108849521657824
1650870608650516500,2.1725166015625,-9.158639096221327,-2.421902444769442,0.8147183733481913
1650870608660526600,2.182526611328125,1.7779788103044032,0.355598860026896,0.08000425082691945
1650870608670536400,2.192536376953125,-2.741916781195998,-0.12656612291503697,1.3581402639485896
1650870608680546600,2.202546630859375,-2.061562527695298,0.1193096215812955,-0.3607141206813976
1650870608690555600,2.2125556640625,-0.6334037017554044,-0.10850867997319437,-0.13138598995269277
1650870608700565500,2.2225654296875,0.6958382383584976,-0.07707204243307933,0.07410274886528495
1650870608710575600,2.23257568359375,0.013632804033160209,-0.04839414271630812,0.05870585320247337
1650870608720585500,2.24258544921875,-0.7553548416882753,-0.10602017849255353,0.08309304715511388
1650870608730594600,2.252594482421875,-0.09065876056849956,-0.00681101802198682,0.04569974796660244
1650870608740604700,2.262604736328125,0.4897866734594106,0.08577690681107342,0.04742060324272606
1650870608750614500,2.272614501953125,-0.31197511461675165,0.05203607484865933,0.04248117407916579
1650870608760624600,2.282624755859375,-0.43512452442348,0.06460473851533606,0.044547253463231025
1650870608770633500,2.292633544921875,0.3350648983031511,0.15797405495047567,0.041621497643063776
1650870608780643600,2.3026435546875,0.10761340250074863,0.14180389619311318,0.032956686714245
1650870608790653400,2.3126533203125,-0.5376251139551401,0.060985602736682624,0.03747982669449411
1650870608800663600,2.32266357421875,-0.12731412827074526,0.036860151293035597,0.03947268557872157
1650870608810673400,2.33267333984375,0.3421007882893085,0.011883999020897316,0.01745710242851637
1650870608820682500,2.3426826171875,-0.18926468074917793,-0.06762802729269024,0.03540187877612188
1650870608830692600,2.352692626953125,-0.3879822494983673,-0.1173312524467241,0.06425013922427315
1650870608840702500,2.362702392578125,0.12108955466747283,-0.07355036197979935,0.027910011483659035
1650870608850712600,2.372712646484375,0.10104045385122298,-0.04532017863106448,0.04864347326830029
1650870608860721700,2.3827216796875,-0.35550095261037346,-0.07411684132271912,0.08360570938498713
1650870608870731500,2.3927314453125,-0.19209201312959193,0.0018839825491188092,0.06050227163257077
1650870608880741600,2.40274169921875,0.1842500674575567,0.06713615668909624,0.03575678859443869
1650870608890751500,2.41275146484375,-0.09287994374930858,0.07910899162078276,0.04832330140322447
1650870608900760600,2.422760498046875,-0.33349779511690136,0.07435258174077607,0.05054305067877285
1650870608910770700,2.432770751953125,-0.017312953850626943,0.1123891472688876,0.04720543982181698
1650870608920780500,2.442780517578125,0.12139876674711704,0.08025759540032595,0.04378395920684561
1650870608930820400,2.4528203125,-0.2278565694719553,0.02149662361028604,0.03131151788968127
1650870608940830500,2.46283056640625,-0.1989735893368721,-0.03538191826690454,0.050531067980034275
1650870608950840600,2.472840576171875,0.09133037621974945,-0.04853302603061311,0.029851021449640393
1650870608960850400,2.482850341796875,-0.059950903093814845,-0.06808018694040364,0.013653645891789346
1650870608970859500,2.492859619140625,-0.2267933241546154,-0.08283908152719958,0.059405471105501054
1650870608980869600,2.50286962890625,-0.07849544456601143,-0.06332051652423105,0.06843636626719962
1650870608990879500,2.51287939453125,0.018776596662402154,-0.0041136321641737595,0.07019050275841728
1650870609000889600,2.5228896484375,-0.13818915802836418,0.02375456317148637,0.07658393012257292
1650870609010898700,2.532898681640625,-0.1660211678057909,0.05102940029045567,0.07754818117800168
1650870609020908500,2.542908447265625,-0.04122282174825668,0.08675519552500918,0.08456901972549967
1650870609030918700,2.552918701171875,-0.0695078359901905,0.1048526051510591,0.04706970744582358
1650870609040928500,2.562928466796875,-0.17366086890399454,0.07266363313999026,0.02401165690482594
1650870609050937600,2.5729375,-0.04347615363299846,0.06390789252470713,-0.004464064453484025
1650870609060947700,2.58294775390625,-0.022972879308462143,0.04800763218333013,-0.03169338649687124
1650870609070936000,2.59293603515625,-0.11125555839538574,-0.0051511699348106045,-0.0008322632727911695
1650870609080946000,2.60294580078125,-0.17215104886293411,-0.03940810047648847,-0.0006557285289512947
1650870609090956000,2.6129560546875,-0.07338087803125382,-0.06278567899516783,0.0351252606416936
1650870609100964900,2.62296484375,-0.04179857580959797,-0.060227692474890494,0.0501270080906339
1650870609110974700,2.632974609375,-0.1327729781985283,-0.0783921577214729,0.05217560205035843
1650870609120984800,2.64298486328125,-0.12169687291085719,-0.02720517169953091,0.07666959911203011
1650870609130994700,2.65299462890625,-0.040592122629284855,0.018868910021777263,0.08709904965977185
1650870609141003800,2.663003662109375,-0.06423544854521751,0.0468843820407521,0.0642068161057774
1650870609151014000,2.673013916015625,-0.13112462646961212,0.08674366948399692,0.04548010016682092
1650870609161023700,2.683023681640625,-0.06229308230578899,0.087979915014375,0.00911772634506924
1650870609171033900,2.693033935546875,-0.050772740381956095,0.07519242096524685,-0.021182518443104346
1650870609181043000,2.70304296875,-0.1233481472492218,0.06689505054275505,-0.03821897060702322
1650870609191052800,2.713052734375,-0.11422200698554515,0.0327930160185555,-0.027542077786987647
1650870609201063000,2.72306298828125,-0.05945347496569156,0.007139206513448152,-0.006781285037426278
1650870609211103000,2.73310302734375,-0.07187105799019336,-0.04027061732364818,0.00576724915667437
1650870609221113000,2.743113037109375,-0.10568681835234164,-0.06123308382488321,0.032500079220277256
1650870609231123000,2.753123046875,-0.07560615286529064,-0.06950695007420145,0.04066425171715673
1650870609241133000,2.763133056640625,-0.06348316887319087,-0.03730241516781971,0.06887332834578119
1650870609251142000,2.773141845703125,-0.09819850842356681,-0.028153350686281917,0.04698607058324851
1650870609261151700,2.78315185546875,-0.10059212556183338,0.00838066250848351,0.026093609711457973
1650870609271161900,2.793161865234375,-0.08188800961375237,0.040253250630316324,0.012076474544318625
1650870609281171700,2.803171630859375,-0.0990969185680151,0.06451358050000854,0.030525708124099764
1650870609291180800,2.813180908203125,-0.10029518844187259,0.06683610516344196,0.02738667259614449
1650870609301191000,2.82319091796875,-0.06917173590362072,0.09802738964036106,-0.055139598388527514
1650870609311200800,2.83320068359375,-0.063486676004529,0.06299025252340361,-0.012439335915294942
1650870609321211000,2.8432109375,-0.10762918459177016,0.029168007621541616,0.035807495868369
1650870609331220000,2.853219970703125,-0.1037368533283472,-0.0011567688196897506,0.061130774227879006
1650870609341229800,2.863229736328125,-0.09280863207876681,-0.007283893947454634,0.07803946269312872
1650870609351240000,2.873239990234375,-0.12931611574292182,-0.013492153453454375,0.10048543205065652
1650870609361250000,2.88325,0.017028876212239266,-0.12303015820807776,0.2300688752265647
1650870609371259000,2.8932587890625,-0.10103227054476738,-0.013040674225753172,-0.1855579534520395
1650870609381269000,2.90326904296875,-0.06437047310173512,-0.0037507765014190226,-0.04493139394260943
1650870609391279000,2.913279052734375,0.017181436425447463,-0.011174188517418224,-0.062387797684804534
1650870609401289000,2.9232890625,-0.2270283019542694,-0.006534534601587802,-0.06036342028430663
1650870609411299000,2.933299072265625,-0.2919698529422283,0.03120447275205515,-0.01649832441593753
1650870609421308000,2.943307861328125,-0.02531388947665691,0.08197326761125587,0.0412854203893803
1650870609431317800,2.95331787109375,0.004614215797185898,0.10242124068513513,0.09581231653993018
1650870609441327900,2.963327880859375,-0.19081366375684736,0.07196250826646573,0.1260324452965986
1650870609451337700,2.973337646484375,-0.09025836307406425,0.07233409979152493,0.11903276826813816
1650870609461346800,2.983346923828125,0.05982815349698067,0.006632487683882937,0.10297978788334876
1650870609471357000,2.99335693359375,-0.10238134706616402,-0.048616174269421025,0.03667357236250536
1650870609481366800,3.00336669921875,-0.1801940700650215,-0.07684183214008808,-0.00893980336174136
1650870609491377000,3.013376953125,-0.028910452663898467,-0.08408350123087875,-0.07350742702037096
1650870609501417000,3.0234169921875,-0.04177753302156925,-0.08325233850320801,-0.08991840879628435
1650870609511426800,3.0334267578125,-0.16343056679069995,-0.0802873146851547,-0.06824136885148473
1650870609521436000,3.043435791015625,-0.12811316969394684,-0.033372044315794484,-0.05258625607732683
1650870609531446000,3.053446044921875,-0.05583586899042129,0.020703062079800293,-0.02653333456928376
1650870609541456000,3.063455810546875,-0.11449322514235973,0.05243232589093968,0.03478118046135641
1650870609551466000,3.073466064453125,-0.1337970605492592,0.0916107001316268,0.07178263535464648
1650870609561476000,3.08347607421875,-0.0582318242162466,0.10687325165793299,0.08774686431032605
1650870609571485000,3.09348486328125,-0.03369359528720379,0.10301959930392914,0.09807121964893303
1650870609581494800,3.103494873046875,-0.08816460566520691,0.05963957212232053,0.08291066719237715
1650870609591505000,3.1135048828125,-0.10283084439933299,0.026989597286668138,0.05254580533592961
1650870609601514800,3.1235146484375,-0.052554363101720805,-0.02116402608847711,0.025719595617160664
1650870609611523800,3.13352392578125,-0.07275543960928917,-0.07016073324123863,-0.04504611093003768
1650870609621534000,3.143533935546875,-0.1088169330716133,-0.07502221093091647,-0.07360012397223617
1650870609631543800,3.153543701171875,-0.10028466704785824,-0.09914756190986372,-0.0722073498730082
1650870609641554000,3.163553955078125,-0.09549392563998699,-0.061266410705749876,-0.0528183614998823
1650870609651563000,3.17356298828125,-0.11688918036818503,-0.028879283490788655,-0.016388466266717295
1650870609661572900,3.18357275390625,-0.10252221684157847,0.028025509355799293,0.014310073107061907
1650870609671583000,3.1935830078125,-0.06481237165033817,0.0461062783743022,0.06915715025584213
1650870609681592800,3.2035927734375,-0.0719955611526966,0.09201771002993918,0.09799370656646787
1650870609691602000,3.213601806640625,-0.09504092117547988,0.11425319670825265,0.09558661802527495
1650870609701612000,3.223612060546875,-0.08157470588088035,0.11226705525917932,0.08817280723797156
1650870609711622000,3.233621826171875,-0.05883212819695472,0.05851756865533534,0.0534938450420741
1650870609721632000,3.243632080078125,-0.09025777855217457,0.023272312062897253,0.01995764369011158
1650870609731641900,3.253641845703125,-0.09579495441317558,-0.022852369617775547,-0.04720088237770833
1650870609741651000,3.26365087890625,-0.07933364895582198,-0.06340771988364867,-0.059227497889823275
1650870609751660800,3.273660888671875,-0.11374912877678871,-0.09636511898394673,-0.027595894900034182
1650870609761671000,3.2836708984375,-0.060925301083922384,-0.10505889571234583,-0.017704404278559377
1650870609771680800,3.2936806640625,-0.09429214863479136,-0.057624811933538876,0.012963553868932649
1650870609781720800,3.303720947265625,-0.09982640188634395,-0.04939676672047935,0.05034424930419772
1650870609791731000,3.31373095703125,-0.09204407744705677,0.008930484119191532,0.05196718803064432
1650870609801740000,3.323739990234375,-0.08979951339066028,0.043003142993501386,0.035731176945858166
1650870609811750000,3.33375,-0.1026689318358898,0.08182945696008391,0.036030794646672436
1650870609821760000,3.343760009765625,-0.08142156114578247,0.09240652668443508,0.036397162007342554
1650870609831769900,3.353769775390625,-0.0963864905655384,0.08871831229152158,-0.010822886295139323
1650870609841779000,3.363779052734375,-0.05987725333571434,0.071200319121778,-0.018778401602065422
1650870609851789000,3.3737890625,-0.07349544432163238,0.03747566882589599,-0.035846478455176106
1650870609861799000,3.383798828125,-0.0820253722578287,-0.01008551649787696,-0.017457623018324375
1650870609871808800,3.393808837890625,-0.08965689004957675,-0.058282887683203444,0.0031165856633073416
1650870609881819000,3.40381884765625,-0.0990834745645523,-0.07916117846574634,-0.006289011433388805
1650870609891827700,3.41382763671875,-0.10177519786655902,-0.1020740712152794,0.0308121101503144
1650870609901837800,3.423837890625,-0.08920447010695934,-0.06982790739056653,0.040238623883342366
1650870609911848000,3.433847900390625,-0.07872866879999638,-0.04953218400264159,0.08633791082785465
1650870609921857800,3.44385791015625,-0.08935176962316035,-0.004328709961759159,0.043764286391995845
1650870609931867000,3.453866943359375,-0.08725625864863396,0.03620103893033229,0.012431589858612278
1650870609941877000,3.463876953125,-0.07693126398921013,0.07003698813056107,0.019533082152088172
1650870609951886800,3.473886962890625,-0.09279401903152465,0.10607238360382616,-0.002455228257057024
1650870609961897000,3.48389697265625,-0.08845569756627082,0.08571873774989508,-0.040137309800181535
1650870609971906000,3.493906005859375,-0.07618658310174942,0.06953571951095945,-0.05298668553780298
1650870609981916000,3.503916015625,-0.09638824413120746,0.030577221398917026,-0.058734969699103384
1650870609991926000,3.513926025390625,-0.10072890368402003,0.009025926725636235,-0.036203262853459456
1650870610001936000,3.523935791015625,-0.08247311602532863,-0.04475360795659944,0.01017689142562449
1650870610011944700,3.53394482421875,-0.10521744727492331,-0.05818010316216386,0.03714589116554707
1650870610021954800,3.543954833984375,-0.08965396744012832,-0.06595146324944216,0.031627358356222976
1650870610031964700,3.553964599609375,-0.0863607711136341,-0.06359683098127134,0.09294550153249874
1650870610041974800,3.563974853515625,-0.09593640871047973,-0.030859189278609117,0.06773828273413236
1650870610052014800,3.574014892578125,-0.10296820704340934,-0.0227374220181955,0.05609681234839372
1650870610062024700,3.584024658203125,-0.09533668925166129,0.017590899717394495,0.013862696949031668
1650870610072057000,3.59405712890625,-0.08516133219599724,0.044660166652640325,0.005292559729210915
1650870610082066200,3.604066162109375,-0.10296879156529903,0.07652611725442111,-0.021254805077891795
1650870610092076000,3.614075927734375,-0.10177227525711059,0.0708436100720195,-0.06093937070847023
1650870610102086100,3.624086181640625,-0.07977671654820442,0.03570556529727764,-0.04829502059023361
1650870610112096000,3.634095947265625,-0.07274433369338512,0.029902753920166284,-0.04519611842655576
1650870610122105000,3.64410498046875,-0.08516483932733536,-0.008875213692930992,-0.010726475574314826
1650870610132115200,3.654115234375,-0.06092413204014301,-0.02819771955097094,0.013487261507561197
1650870610142125000,3.664125,-0.09204816910028457,-0.06539184747214895,0.05768231427443679
1650870610152135200,3.67413525390625,-0.10237257923781871,-0.06419263688337523,0.09076488782409578
1650870610162144000,3.68414404296875,-0.113444592872262,-0.0841497805332765,0.11262295602476223
1650870610172153900,3.69415380859375,-0.0856114140510559,-0.04648777937202248,0.0710711123846937
1650870610182164000,3.7041640625,-0.08321721239089966,-0.01717047435672721,0.04711172452322207
1650870610192174000,3.714174072265625,-0.10596154364049434,0.019014690009393962,0.0077410956672887546
1650870610202184000,3.724183837890625,-0.07408873403966426,0.04867558543961495,-0.05377504117020871
1650870610212193000,3.734193115234375,-0.08396540040969848,0.05786704602446407,-0.0804160647645127
1650870610222203100,3.744203125,-0.10581307508051395,0.07797525661680847,-0.07851021287688054
1650870610232213000,3.754212890625,-0.0733422995865345,0.06702718902244233,-0.08384827683605253
1650870610242223000,3.76422314453125,-0.07693477112054824,0.05511448221358005,-0.04082668030383065
1650870610252232200,3.774232177734375,-0.09593933131992817,0.007166806906426791,-0.005516489836820983
1650870610262242000,3.784241943359375,-0.1101549036771059,-0.030178232693567404,0.03919568156851455
1650870610272252200,3.794252197265625,-0.08232230937778949,-0.0367381962806452,0.058695797599339856
1650870610282262000,3.804261962890625,-0.08636194015741348,-0.06021759577256161,0.10448854847848414
1650870610292271000,3.81427099609375,-0.09698562550246714,-0.053667078150552695,0.11469233704418874
1650870610302281200,3.82428125,-0.09144844964146613,-0.05260420272597111,0.07398410005483311
1650870610312291000,3.834291015625,-0.07902794400751591,-0.01886887234751484,0.055865848570154045
1650870610322301200,3.84430126953125,-0.08531213884353638,0.009007667266449425,0.019874545683653558
1650870610332341000,3.854341064453125,-0.08860416612625122,0.04440504568067845,-0.015342330772738205
1650870610342350800,3.864350830078125,-0.11284604245722293,0.042886453244695436,-0.025450370771321465
1650870610352361000,3.87436083984375,-0.09533902733922005,0.05331223226431757,-0.07413544555848929
1650870610362370000,3.8843701171875,-0.10431728356480598,0.03971300170719623,-0.10621337211024946
1650870610372380000,3.8943798828125,-0.07483984466791152,0.024585999893792905,-0.11656069733249023
1650870610382390000,3.90439013671875,-0.0661614481717348,0.03192265607494628,-0.08230333981583826
1650870610392400100,3.914400146484375,-0.09653846625685691,0.009752076442562974,0.016405022392584942
1650870610402409000,3.924408935546875,-0.09369535178542136,0.01667242060751887,0.07775630750334821
1650870610412419000,3.934419189453125,-0.053442836374044414,-0.024976652312348597,0.11682687398800626
1650870610422429200,3.94442919921875,-0.058679567983746524,-0.012918442935438361,0.13913342574168927
1650870610432439000,3.95443896484375,-0.12122808635532856,-0.022523539522208737,0.11419296355415134
1650870610442448100,3.9644482421875,-0.09519114330112934,-0.03620712846111273,0.091828416269226
1650870610452458200,3.974458251953125,-0.03578559913039207,-0.009127944061695597,0.062028006195393386
1650870610462468000,3.984468017578125,-0.11988251696527004,-0.01918904078765772,0.057211682821693824
1650870610472478200,3.994478271484375,-0.1382885267496109,-0.017939849010738543,0.012528139860043301
1650870610482488000,4.004488037109375,-0.1104553479284048,0.005317327131819911,-0.09126563128731213
1650870610492497000,4.014496826171875,-0.12272621595859527,0.00011247936456929892,-0.1310891989632044
1650870610502507000,4.024507080078125,-0.1740513295263052,0.00032553074349416417,-0.13954924000096505
1650870610512516900,4.034516845703125,-0.054041386789083476,0.024782228002080228,-0.16155666267760097
1650870610522527000,4.04452685546875,-0.014388006314635276,0.056733863576338625,-0.08637300040754489
1650870610532536000,4.0545361328125,-0.11479600748121738,0.036003096072282643,-0.03556838531629182
1650870610542546000,4.0645458984375,-0.10911036306023597,0.027276832713233307,0.06503946297105867
1650870610552556000,4.07455615234375,-0.06796002202630043,0.04510143501358106,0.12600976767390965
1650870610562566100,4.084566162109375,-0.09669044194817543,0.02311955777015537,0.1768560299498029
1650870610572575000,4.094574951171875,-0.10088029485344886,0.0075366014833329244,0.17495299107376486
1650870610582585000,4.104585205078125,-0.0898071121752262,0.004211514464521315,0.16006576653271912
1650870610592595200,4.11459521484375,-0.10746434941887854,-0.014267880216438789,0.08038674733848311
1650870610602605000,4.12460498046875,-0.1068652144819498,-0.037692836974223605,0.014623500137520022
1650870610612645000,4.13464501953125,-0.06571428892612458,-0.012661415417469107,-0.03695022931284038
1650870610622655200,4.1446552734375,-0.06002747546136379,0.015168918426102027,-0.10604282871577889
1650870610632665000,4.1546650390625,-0.11240063677728175,0.0013976078212610446,-0.11507389284083619
1650870610642674000,4.164673828125,-0.08800912284255027,0.0180222049483913,-0.09411232595532201
1650870610652684000,4.17468408203125,-0.061223991769552226,0.011040225690114312,-0.08288334992718882
1650870610662694000,4.18469384765625,-0.09818447989821434,0.01949402193346759,-0.007465848076861584
1650870610672704000,4.1947041015625,-0.0869622441381216,-0.005805126631783787,0.049618095020693725
1650870610682713000,4.204713134765625,-0.07918167326450347,-0.001973583361599594,0.04677440516052302
1650870610692723000,4.214722900390625,-0.08576572782993316,0.011278418360161595,0.10050873986100778
1650870610702733000,4.224733154296875,-0.08352057925164699,-0.016973081771237776,0.10650786154479719
1650870610712743200,4.2347431640625,-0.08067746478021144,-0.013589238886069506,0.0690484200512059
1650870610722752000,4.244751953125,-0.08381985445916652,-0.019938418399833607,0.02636994700138457
1650870610732762000,4.25476220703125,-0.0913017346471548,0.0016300123546272515,0.010031474480900214
1650870610742772200,4.264772216796875,-0.10237433280348777,0.01835669074989855,-0.020398473659635055
1650870610752782000,4.274781982421875,-0.08950549888014793,0.018462751790124455,-0.024680094218300655
1650870610762791200,4.284791259765625,-0.11195113944411277,0.021192135654820594,-0.05061886042791884
1650870610772801300,4.29480126953125,-0.10192541999220847,0.024508845287642907,0.009797166826459579
1650870610782811100,4.30481103515625,-0.09968144045770168,0.03449846822957042,0.009154050613087019
1650870610792821200,4.3148212890625,-0.09294774828851222,0.023575254231959115,0.001910466984778759
1650870610802830800,4.324830810546875,-0.08367080137729645,0.006413613918947521,0.03760169037533924
1650870610812840000,4.33483984375,-0.0838204389810562,0.000425312739983201,0.026656951815797945
1650870610822850000,4.34485009765625,-0.08052841169834137,0.0031973552861833013,0.045242656415444796
1650870610832860000,4.35485986328125,-0.0904044935464859,-0.03066288582179695,0.03694210080531193
1650870610842870000,4.3648701171875,-0.08950608340203761,-0.036304782432597126,0.002343963031217572
1650870610852879000,4.374879150390625,-0.09294774828851222,-0.002583780831948388,-0.005934069078208995
1650870610862889000,4.384888916015625,-0.11943301963210105,0.0043069924619398075,-0.020984758248145226
1650870610872899000,4.394899169921875,-0.08711129721999168,0.024176275165297554,-0.009880361872684443
1650870610882939100,4.404939208984375,-0.1026736080110073,0.012839409182744566,0.02072305683834711
1650870610892949000,4.414948974609375,-0.08591419638991356,0.03224274574163137,0.028015659248642622
1650870610902959000,4.424958984375,-0.0787315914094448,0.022602765071147585,0.021988430281798355
1650870610912968200,4.43496826171875,-0.08456804247796534,0.012631189242564142,0.04174713788330555
1650870610922978000,4.44497802734375,-0.0785831228494644,0.0015964160457020624,0.037272958461183586
1650870610932988200,4.45498828125,-0.08486731768548487,-0.0058914372253464535,0.03675435054771369
1650870610942998300,4.464998291015625,-0.08367080137729645,-0.0043329009380424395,0.0009661832884332398
1650870610953007900,4.4750078125,-0.0995323873758316,-0.016258348497468978,-0.015318284318514633
1650870610963017000,4.485016845703125,-0.08531681501865386,-0.024286471241235265,-0.026474886946892363
1650870610973027000,4.495027099609375,-0.08052782717645168,-0.011199453106126748,-0.03706131358805578
1650870610983037000,4.505036865234375,-0.07678630256056786,-0.010478331190766766,0.0006756393766409019
1650870610993047000,4.515047119140625,-0.09010404929518699,-0.0009769803895498625,-0.023637357399449683
1650870611003056000,4.52505615234375,-0.08800912284255027,0.03715392605824163,0.023949935046536846
1650870611013066000,4.53506591796875,-0.09743629187941551,0.04057024415761698,0.049709641195088625
1650870611023076000,4.545076171875,-0.08037760505080223,0.026975924954342187,0.06944610956532414
1650870611033086000,4.5550859375,-0.09130115012526512,0.03797578210145002,0.07333761427826248
1650870611043095000,4.565094970703125,-0.09549100303053855,0.027286678253812712,0.07163639985094777
1650870611053105200,4.575105224609375,-0.09818447989821434,0.023286836061882785,0.05604033292080275
1650870611063115000,4.585114990234375,-0.09160100985467433,0.01669883369040908,0.0034607668791664763
1650870611073119700,4.59511962890625,-0.08771043215692043,0.005240448803594336,-0.023836359703424386
1650870611083128600,4.605128662109375,-0.10491875658929348,-0.011810182582726701,-0.05519988177497871
1650870611093138700,4.615138671875,-0.09848375510573387,-0.030580965992272828,-0.06470433099886867
1650870611103148800,4.625148681640625,-0.08337035712599754,-0.013732442182465455,-0.04616084440601989
1650870611113158700,4.63515869140625,-0.08606383399367332,-0.003400424127210863,-0.02899007550505921
1650870611123168800,4.645168701171875,-0.08561492118239403,0.006428306881291791,0.0023822860330212276
1650870611133177600,4.655177490234375,-0.10895838736891746,0.029231343764893242,0.05206864367770031
1650870611143187500,4.6651875,-0.10506780967116355,0.02304086422746768,0.03652483437446644
1650870611153227500,4.6752275390625,-0.07469137610793113,0.03841472835785244,0.0935250915187411
1650870611163237600,4.685237548828125,-0.10641454810500145,0.021300075841590296,0.10272023276486433
1650870611173247500,4.69524755859375,-0.11449497870802879,0.031379902384197335,0.07837801046511157
1650870611183257600,4.705257568359375,-0.0944435398042202,0.010673113977350294,0.03229409461966715
1650870611193266700,4.7152666015625,-0.09893266791701316,-0.00657127728224732,0.005188886438071494
1650870611203276500,4.725276611328125,-0.11090367621779441,-0.008698032778408377,-0.03998145708476659
1650870611213286700,4.73528662109375,-0.10416939952671528,-0.019774670072330625,-0.042709256347152405
1650870611223296800,4.745296875,-0.07992810771763324,-0.025292501912044827,-0.06360025134764145
1650870611233305600,4.7553056640625,-0.09414309555292129,-0.014129914784163701,-0.05713301896175835
1650870611243315700,4.765315673828125,-0.10312135177850723,0.005670807611453346,0.0032556861754434066
1650870611253325800,4.775325927734375,-0.08905483250319957,0.031386628952506,0.018900942277989816
1650870611263335700,4.785335693359375,-0.09474106144607067,0.014389666265470441,0.025238903994706924
1650870611273345800,4.795345703125,-0.10072656559646129,0.02943802705182461,0.05979586322915274
1650870611283354600,4.805354736328125,-0.09085048374831677,0.037044524566747714,0.08119030967317521
1650870611293364500,4.815364501953125,-0.0658610039204359,0.02875764813880669,0.08613638777323067
1650870611303374600,4.82537451171875,-0.09653729721307754,0.03990885763943661,0.04362548070950433
1650870611313384400,4.835384521484375,-0.1119493858784437,0.01117320670330664,0.027403192189394028
1650870611323393500,4.8453935546875,-0.07483926014602184,0.008564812019909732,-0.009811757040815427
1650870611333403600,4.855403564453125,-0.09070084614455699,-0.008450451225508004,-0.033940900562179736
1650870611343413500,4.86541357421875,-0.10476678089797496,-0.028460190429037902,-0.03074672589706024
1650870611353423600,4.875423583984375,-0.09085048374831677,0.001976494554604869,-0.023985860309866255
1650870611363432700,4.8854326171875,-0.07633505166172981,-0.011356299052096437,-0.04240076578671578
1650870611373442600,4.895442626953125,-0.0968354033768177,-0.0004924711085041053,0.015203896124649327
1650870611383452700,4.90545263671875,-0.07573650124669075,0.02223109819756355,0.004407936652342323
1650870611393462800,4.915462890625,-0.08710837461054324,0.015841239613539074,0.03427939810181269
1650870611403472600,4.92547265625,-0.09264496594965457,0.01464813910514349,0.041086861043400126
1650870611413481700,4.935481689453125,-0.09892974530756472,0.03144061502891127,0.06194814589221496
1650870611423522800,4.945522705078125,-0.08381693184971808,0.01782571197862271,0.061274183020251796
1650870611433531600,4.95553173828125,-0.08232055581212043,0.03109256192635512,0.018179971059679518
1650870611443541500,4.96554150390625,-0.08022562935948371,0.0037472008714219554,0.01903365043819067
1650870611453551600,4.975551513671875,-0.10775894845128059,-0.006687122214259579,-0.00008436922740365844
1650870611463561500,4.9855615234375,-0.09474047692418099,-0.004376751496212091,-0.025359242438746148
1650870611473570600,4.995570556640625,-0.0811234549820423,0.008787302514037582,-0.026384859159437474
1650870611483580700,5.00558056640625,-0.1016238066971302,-0.007267130042321514,-0.01492493647772935
1650870611493590500,5.015590576171875,-0.08740764981806277,0.007024861702066846,-0.030058494754438288
1650870611503600600,5.0256005859375,-0.09339315396845341,-0.011921682416473048,-0.005287296748915105
1650870611513609700,5.035609619140625,-0.0742395406872034,-0.0003048875309759751,0.0012225589274981756
1650870611523619600,5.04561962890625,-0.0785790311962366,0.014452207824378274,0.018700182983413104
1650870611533629700,5.055629638671875,-0.08411562253534793,0.019714934675151015,0.03534138304382795
1650870611543639600,5.0656396484375,-0.094290979591012,0.012685474429780151,0.046012987767392766
1650870611553649700,5.075649658203125,-0.10132394696772098,0.019660578705987426,0.028247682472807352
1650870611563658800,5.08565869140625,-0.0808235952526331,0.03174909873948199,0.028951634057657792
1650870611573668600,5.095668701171875,-0.08351707212030887,0.013769687186623922,0.02233926442990778
1650870611583678700,5.1056787109375,-0.09354279157221317,-0.002215442993189208,-0.00023497094978811218
1650870611593688800,5.115688720703125,-0.08695873700678348,0.012195049147889948,-0.02411386147055309
1650870611603697700,5.12569775390625,-0.09055003949701786,-0.02824457263369113,-0.011904580584622453
1650870611613707500,5.13570751953125,-0.10162322217524052,-0.014042094936815555,-0.011554344658134505
1650870611623717600,5.145717529296875,-0.08935293866693973,-0.005096186061273328,-0.0026735189271581473
1650870611633727500,5.1557275390625,-0.1004255368232727,0.0015034382493351586,-0.011519323577103203
1650870611643736600,5.165736572265625,-0.08591068925857544,0.007074145345535362,0.022502976224792654
1650870611653746700,5.17574658203125,-0.09414075746536255,-0.004744400923448847,0.013357530755735933
1650870611663756500,5.185756591796875,-0.10685995378494262,0.00571336012003594,0.023308725949993822
1650870611673766700,5.1957666015625,-0.08576105165481566,0.03043680143136298,0.012522590327024226
1650870611683806700,5.205806640625,-0.08321721239089966,0.004175852921028854,0.013704871472239028
1650870611693816600,5.215816650390625,-0.10326865129470825,0.016643792734656018,0.01977016286057187
1650870611703826700,5.22582666015625,-0.11404255876541138,0.010769707361265318,0.004133910906744131
1650870611713835800,5.235835693359375,-0.06930091524124145,0.014027737617900129,0.016593117426766547
1650870611723845600,5.245845703125,-0.09309329423904418,0.006985881398548372,0.02317847575000487
1650870611733855700,5.255855712890625,-0.09114800539016724,-0.019144756404648067,0.01800228325508069
1650870611743865900,5.265865966796875,-0.08246902437210082,0.01138302951210644,0.019246291966806165
1650870611753874400,5.27587451171875,-0.08037409791946411,-0.0056234864545636806,0.0012068025234737432
1650870611763884500,5.285884521484375,-0.10835632982254027,-0.0005668206945701967,0.0018187495637364917
1650870611773894700,5.295894775390625,-0.08142156114578247,0.021834559460915625,0.014280285323574208
1650870611783904500,5.305904541015625,-0.0808230107307434,-0.016832546497607837,0.003500137339629873
1650870611793913600,5.31591357421875,-0.07513678178787231,-0.007095744114345871,-0.018774662716931196
1650870611803923700,5.325923828125,-0.08007482271194458,0.03083013671406079,-0.039743995067081414
1650870611813933600,5.33593359375,-0.08860416612625122,0.012059306497097712,-0.015836385341908316
1650870611823943700,5.345943603515625,-0.0865092396736145,0.016389855647849616,-0.01625611315789865
1650870611833952800,5.355952880859375,-0.09713350954055786,0.017423264090996236,0.004687563875775958
1650870611843962600,5.365962646484375,-0.09010054216384887,-0.0026320872278825843,0.011766234984790206
1650870611853972700,5.37597265625,-0.07438859376907349,-0.021985672069131396,0.03393510557563277
1650870611863982600,5.385982666015625,-0.08995090456008911,-0.011780812641058583,0.041902899267175234
1650870611873992700,5.39599267578125,-0.10835632982254027,-0.03138586176752578,0.045423639005539
1650870611884001800,5.406001708984375,-0.08800561571121215,0.005299769783887314,0.03933877526705619
1650870611894011600,5.41601171875,-0.08576046713292598,0.0056909553503384815,0.030598255053791216
1650870611904021800,5.426021728515625,-0.09399053533971309,0.007549077372415922,-0.0004966107107931747
1650870611914031900,5.436031982421875,-0.0983300258487463,0.00886492976093432,-0.027573979895748196
1650870611924040400,5.44604052734375,-0.08875321920812129,0.0028638159078138415,-0.047403099552076305
1650870611934050600,5.456050537109375,-0.08785597810745238,0.018572571123437954,-0.021311200023803392
1650870611944060700,5.466060791015625,-0.1047650273323059,0.021384377141157165,-0.015786662165378218
1650870611954100700,5.476100830078125,-0.09084931470453739,0.021541686594719067,-0.0124330660047126
1650870611964110600,5.486110595703125,-0.10027589921951294,0.026730375528323927,0.022345041150145697
1650870611974120700,5.49612060546875,-0.08725801221430302,0.006102286372386152,0.056307765385066155
1650870611984129800,5.5061298828125,-0.09533785829544067,0.0024114233646600042,0.04896440775177907
1650870611994139600,5.5161396484375,-0.08321721239089966,0.009537983884022105,0.04104844699546229
1650870612004149800,5.526149658203125,-0.08142156114578247,-0.000984047167864628,0.02931781190537149
1650870612014159600,5.53615966796875,-0.07977554750442505,0.015240371660538949,0.02888038175262045
1650870612024169700,5.546169677734375,-0.09099778326451778,0.01887428259992739,-0.016804754308384143
1650870612034178800,5.5561787109375,-0.0682528674930334,-0.0006243584264419041,-0.010025898690061876
1650870612044188700,5.566188720703125,-0.09294307211339473,-0.00112884876630269,-0.03271331782886991
1650870612054198800,5.57619873046875,-0.10147241552770137,-0.017216174378688446,-0.04452388172079809
1650870612064208600,5.586208740234375,-0.07842822454869747,-0.006771418947249185,-0.06295545063808095
1650870612074210600,5.59621044921875,-0.08097206381261349,0.01086894479341572,-0.023334106986422555
1650870612084220700,5.606220703125,-0.08875321920812129,0.011481919884384842,0.01916889761534985
1650870612094230500,5.61623046875,-0.09069850805699825,0.017271836388949306,0.004355271458410425
1650870612104240600,5.62624072265625,-0.08276713053584098,0.004551419651595642,0.04378131059203297
1650870612114249700,5.636249755859375,-0.06510989329218864,0.012058046121773077,0.04809004520319868
1650870612124259600,5.646259521484375,-0.08605974234044551,0.015156934585719135,0.05769026925202925
1650870612134269700,5.656269775390625,-0.09234452169835566,0.014708302618941524,0.04594157106557395
1650870612144279800,5.66627978515625,-0.07109539744257927,-0.0021161085212719625,0.02144210324434098
1650870612154289000,5.676288818359375,-0.08650807062983512,0.02105723667917773,0.0003594144613758544
1650870612164298800,5.686298828125,-0.0857598826110363,0.02139983957177028,-0.01582633088041912
1650870612174308900,5.696308837890625,-0.0983294413268566,0.009837509111646795,-0.033894990477664394
1650870612184318700,5.706318603515625,-0.06810264536738395,0.010611970932729309,-0.041878723807143976
1650870612194328800,5.716328857421875,-0.07977496298253536,-0.006838203998078825,-0.0267145363550866
1650870612204338000,5.726337890625,-0.08067278860509396,0.012487149120884713,-0.006545690179019584
1650870612214378800,5.736378662109375,-0.08605974234044551,-0.0011531543737859464,0.00416539260498539
1650870612224387600,5.7463876953125,-0.08875321920812129,0.003583616940700449,0.013554876533808418
1650870612234397700,5.756397705078125,-0.09473813883662223,0.02382257777324412,0.04268359674951061
1650870612244407600,5.766407470703125,-0.1040156702697277,0.008947428404126549,0.040187743079476056
1650870612254417700,5.776417724609375,-0.08935118510127067,-0.013578543962119147,0.06328313452275469
1650870612264426800,5.7864267578125,-0.0905482859313488,0.0009119603208324405,0.05041190771292895
1650870612274436600,5.7964365234375,-0.09907704482376575,0.01976399341468932,0.024170655991975216
1650870612284446700,5.80644677734375,-0.0805219819575548,0.006827623238560045,0.006838790232434984
1650870612294456800,5.816456787109375,-0.08351473403275013,0.0012706055993505288,-0.033672666663606646
1650870612304465700,5.826465576171875,-0.06720423522293567,0.013615886006044456,-0.011443253533053211
1650870612314475800,5.836475830078125,-0.08456219725906848,0.013279622664337512,-0.03704446063466603
1650870612324486000,5.84648583984375,-0.09369009108841418,0.015218312809069174,-0.03466852756685111
1650870612334495700,5.856495849609375,-0.085310969799757,-0.00034742748147109523,-0.011853722613642457
1650870612344505900,5.866505859375,-0.10955226160883903,-0.005481932834204053,-0.015286550031468504
1650870612354515000,5.876514892578125,-0.12197218272089957,0.010032908386160852,0.0120356185191893
1650870612364524800,5.88652490234375,-0.11254501368403434,0.0029881158576288724,0.031195940102438906
1650870612374535000,5.896534912109375,-0.08710662104487418,0.012767852058674907,0.04995403984363656
1650870612384544800,5.906544677734375,-0.09339140040278435,0.000006556463305605575,0.02698262412318727
1650870612394553600,5.9165537109375,-0.07738017680048942,-0.00152376865131082,0.015809178816218628
1650870612404563700,5.926563720703125,-0.07738017680048942,0.01654652349730604,0.014756116966175613
1650870612414573600,5.936573486328125,-0.09743161570429801,-0.011070043156354221,0.005351697475591209
1650870612424583700,5.946583740234375,-0.09758125330805778,0.0040816535652440505,0.0024226876837128656
1650870612434592800,5.9565927734375,-0.07348959910273552,-0.007476783887762576,-0.019195991118252275
1650870612444602600,5.9666025390625,-0.08590952021479606,0.02032485815086402,-0.007455946595710702
1650870612454612700,5.97661279296875,-0.0883037218749523,0.01441587385238381,0.005240918590230285
1650870612464622800,5.986622802734375,-0.08456278178095818,0.009101639435015385,-0.018212416591134387
1650870612474662700,5.99666259765625,-0.08980009791254996,0.0059910103009257,0.004510343859935528
1650870612484672800,6.0066728515625,-0.08172025183141231,0.009728904487885302,-0.004773149525198096
1650870612494683000,6.016682861328125,-0.06077098730504513,0.0010842424395959825,0.003965194714000972
1650870612504691700,6.026691650390625,-0.09458908575475215,0.015012006264762021,0.010845707765012048
1650870612514701800,6.036701904296875,-0.08246843985021114,-0.009249649053980829,0.02401575540791964
1650870612524712000,6.0467119140625,-0.08516133219599724,-0.002628956839168677,0.026425946938362904
1650870612534721800,6.0567216796875,-0.08306640574336051,-0.007191066848137416,0.019098831478756618
1650870612544730600,6.066730712890625,-0.10207038142085074,0.0062515027093933894,0.025821053547505288
1650870612554740700,6.07674072265625,-0.09593523966670035,0.019789029674534685,-0.0006358333788710296
1650870612564750600,6.08675048828125,-0.09698270289301872,0.020607421968888956,0.006637140455291956
1650870612574760700,6.0967607421875,-0.08426350657343865,-0.0031368846700643186,-0.00922437761540641
1650870612584769800,6.106769775390625,-0.08531155432164668,0.006525345506489975,-0.007377740535145858
1650870612594779600,6.116779541015625,-0.07543547247350216,0.021959350317786445,-0.0064356533624639264
1650870612604789800,6.126789794921875,-0.0748369220584631,0.008636854342813603,-0.035090878881479146
1650870612614799600,6.136799560546875,-0.08770634050369262,0.017180205732875035,0.006172907918939017
1650870612624808700,6.14680859375,-0.09025017976760864,-0.004495315824984573,0.023220168600417673
1650870612634818800,6.15681884765625,-0.08306757478713989,-0.012733026198821606,0.0049046307031705505
1650870612644828700,6.16682861328125,-0.08291735266149043,0.005695945477642817,0.012445594409434125
1650870612654838800,6.1768388671875,-0.09054887045323848,-0.0246509457556298,0.03108481472802814
1650870612664849000,6.186848876953125,-0.08486322603225707,-0.008229097809118685,0.011975641093414742
1650870612674857700,6.196857666015625,-0.08112228593826293,0.013303424806677502,0.009367262393038254
1650870612684867800,6.206867919921875,-0.08381517828404902,0.0324005780682899,0.013383713226474355
1650870612694878000,6.2168779296875,-0.08650865515172482,0.021800241632782852,0.026200061194039878
1650870612704887800,6.2268876953125,-0.08097206381261349,0.011452494002145248,0.0007287141354710911
1650870612714896600,6.236896728515625,-0.09728256262242793,0.01858277628197684,0.021417918651155193
1650870612724906800,6.24690673828125,-0.1008738651126623,0.013928760480653727,0.0015252670594752998
1650870612734946800,6.25694677734375,-0.09399053533971309,0.017932324433053145,0.007798421624139882
1650870612744956700,6.266956787109375,-0.09563654898107052,0.014088600959663744,-0.002111103552591521
1650870612754966800,6.276966796875,-0.10880465811192988,-0.004124016560870222,-0.007118481673361384
1650870612764976600,6.2869765625,-0.08650865515172482,0.002822684746404411,-0.01561905622173217
1650870612774985700,6.29698583984375,-0.08186988943517208,-0.01757318710583495,0.0027947743969940347
1650870612784995800,6.306995849609375,-0.09473872335851193,-0.006828849364555208,-0.015193728640372864
1650870612795005700,6.317005615234375,-0.08591010473668574,-0.018189952455932506,-0.004822176584106637
1650870612805015800,6.327015869140625,-0.07842764002680779,-0.008977388575905933,0.01444778966087615
1650870612815026000,6.33702587890625,-0.07887655283808707,0.011997371151321566,0.019273536166758275
1650870612825034800,6.34703466796875,-0.07513619726598263,0.006159982792817755,0.019937411469547077
1650870612835044900,6.357044921875,-0.08486264151036739,0.003526535866555059,0.019863273087679406
1650870612845055000,6.367054931640625,-0.09354162252843379,0.004730505970481317,0.02279145832695067
1650870612855064800,6.37706494140625,-0.08725684317052364,0.00018322934610769153,0.032916592165874316
1650870612865073700,6.38707373046875,-0.08112170141637325,0.01464838341702707,0.01356458850200288
1650870612875083800,6.397083740234375,-0.08501227911412715,0.00855792333810823,-0.016709505781473125
1650870612885093600,6.40709375,-0.0782785869449377,0.011507869459682843,-0.006431639341049594
1650870612895103700,6.417103759765625,-0.08620937994420527,0.022177984337415545,-0.017096402190229853
1650870612905112800,6.42711279296875,-0.08815466879308223,-0.014931729261408327,-0.010145626354392152
1650870612915122700,6.437122802734375,-0.08381517828404902,0.003502971186232753,-0.00033862568920740155
1650870612925132800,6.4471328125,-0.1026695163577795,-0.013765789612929801,0.0021630112655198898
1650870612935142700,6.457142578125,-0.08037351339757443,-0.0010165086823399178,0.011879867410118459
1650870612945152800,6.46715283203125,-0.097881113037467,0.016326156461605568,0.02727652218597941
1650870612955161900,6.477161865234375,-0.08082242620885371,0.012866769830416886,0.027896553780464454
1650870612965171700,6.487171630859375,-0.08201894251704216,0.01425457663522684,0.015176611967146163
1650870612975181800,6.497181884765625,-0.10506313349604605,0.01315670981236617,0.01397583504237118
1650870612985192000,6.50719189453125,-0.08276713053584098,0.011302396315726219,0.0038762258016489795
1650870612995231700,6.517231689453125,-0.0983300258487463,0.005089750612265197,-0.00583714747155318
1650870613005241900,6.527241943359375,-0.0974322002261877,-0.00007663515798631124,-0.010605254639219491
1650870613015250700,6.537250732421875,-0.07768003652989863,0.009621787426667288,-0.0008632994443381904
1650870613025260800,6.5472607421875,-0.07902677496373653,0.004802641908219084,-0.012720697581855346
1650870613035270700,6.557270751953125,-0.09997603949010371,0.014339935097430133,-0.009470669681052094
1650870613045280800,6.56728076171875,-0.08291676813960075,-0.016273547208245143,-0.007986637672618962
1650870613055289900,6.577289794921875,-0.08231821772456169,0.0015799546763126272,0.004206549738803005
1650870613065299700,6.5872998046875,-0.08845335947871208,0.0015368895694322416,0.03469673988118302
1650870613075314400,6.597314453125,-0.0800736536681652,-0.00039140818709274753,0.029584821961238048
1650870613085324500,6.607324462890625,-0.06825228297114372,-0.0156320332926698,0.014075261987478006
1650870613095334700,6.617334716796875,-0.08336568095088004,-0.006171015643485589,0.010971900561102666
1650870613105343500,6.627343505859375,-0.0766319887816906,0.0179551264949725,0.034394615129451266
1650870613115353600,6.637353515625,-0.10940262400507926,0.0003419841213733889,-0.0005573453321601846
1650870613125363700,6.64736376953125,-0.08082184168696403,-0.006838524800131563,-0.0037163151115135406
1650870613135373600,6.65737353515625,-0.08860299708247184,-0.00023092724562156944,-0.003059476618876215
1650870613145382400,6.66738232421875,-0.09788052851557731,0.009674547377077396,-0.009753698719135718
1650870613155392500,6.677392578125,-0.09039864832758902,0.008912803473672829,-0.00042369103423261546
1650870613165402400,6.68740234375,-0.07588380076289176,0.020232079000608062,-0.025798905647778883
1650870613175412500,6.69741259765625,-0.09743161570429801,0.003317981424590107,-0.007383320892561459
1650870613185421600,6.707421630859375,-0.09862871653437613,-0.028924714084691366,0.023718010003783273
1650870613195431400,6.717431396484375,-0.07812836481928825,0.01334064241137239,-0.0016027253430132987
1650870613205441500,6.727441650390625,-0.07109539744257927,-0.0078002950624621,0.020352860402641816
1650870613215451400,6.737451416015625,-0.08800444666743278,-0.0000019111125846393406,0.02873134237048216
1650870613225460500,6.74746044921875,-0.08366495615839958,0.002097520268522203,0.019121421194833236
1650870613235470600,6.757470703125,-0.08366495615839958,0.023568329017539507,0.020454571778024545
1650870613245480400,6.76748046875,-0.09548632685542106,0.03531894744973397,0.01527585624916246
1650870613255520500,6.7775205078125,-0.08321604334712028,0.01902172025509062,0.007679175162888714
1650870613265530600,6.787530517578125,-0.09039864832758902,0.024135975120950025,0.0063522134335333245
1650870613275540500,6.79754052734375,-0.07872691523432732,0.0033267538195126687,-0.010032532785180955
1650870613285550600,6.807550537109375,-0.09937690455317497,-0.00392125482216361,-0.028372146819403858
1650870613295559400,6.817559326171875,-0.1001250925719738,-0.0256888488524477,-0.005413354260154301
1650870613305569500,6.827569580078125,-0.09039864832758902,-0.02080803399134893,-0.0006893550914508523
1650870613315579400,6.837579345703125,-0.09788052851557731,-0.01141540426161373,0.005751911736113834
1650870613325589500,6.847589599609375,-0.08321604334712028,0.001604707808367675,0.014391218901739921
1650870613335598600,6.8575986328125,-0.08336626547276973,-0.011049288062693084,0.010417740701994626
1650870613345608400,6.8676083984375,-0.09713234049677848,0.029570085616409777,0.008486641921140835
1650870613355618600,6.87761865234375,-0.0996761797606945,0.03390736361875897,0.013713851646427064
1650870613365628400,6.88762841796875,-0.10027531469762324,0.004230158657842548,0.016784048305428585
1650870613375637500,6.897637451171875,-0.10177169073522091,0.009588103211129783,0.01656629563521128
1650870613385647600,6.907647705078125,-0.0648112026065588,0.006391798237717012,0.009371465927409008
1650870613395657500,6.917657470703125,-0.09054945497512817,-0.011887816679489332,0.005184668062324635
1650870613405667600,6.92766748046875,-0.08710779008865356,0.0008037997967097908,-0.010011778833164134
1650870613415677400,6.937677490234375,-0.10012626161575316,-0.00009956622571335174,-0.0008417794489854714
1650870613425686500,6.9476865234375,-0.0892021320194006,-0.01531895560537232,-0.013757188464654608
1650870613435696600,6.957696533203125,-0.08605974234044551,-0.0017845944199187213,-0.010242695803986861
1650870613445706500,6.96770654296875,-0.10311842916905879,0.003958736146695446,-0.033656599161506165
1650870613455716600,6.977716552734375,-0.08980068243443966,-0.006103270469786366,-0.01512110065393499
1650870613465725400,6.987725341796875,-0.10371697958409785,0.005280122085212497,0.010950438789610053
1650870613475735600,6.997735595703125,-0.1070090068668127,-0.0037177030655904672,0.02604220831778366
1650870613485745400,7.007745361328125,-0.10057458990514277,0.025224389128875917,0.01728651108498452
1650870613495755500,7.017755615234375,-0.0983294413268566,0.007788569233694579,0.032482470498350444
1650870613505764600,7.0277646484375,-0.0896504603087902,-0.0040630025220569225,0.03557737005705712
1650870613515805400,7.037805419921875,-0.08875263468623161,0.017094822154496796,0.028361244116188025
1650870613525814500,7.047814453125,-0.09518705164790153,-0.010319200814521172,0.02372801080798963
1650870613535824600,7.05782470703125,-0.09473755431473255,0.00012724881708272732,0.01593670048629283
1650870613545834500,7.06783447265625,-0.09354045348465442,-0.02065065832241671,-0.0007565642631438095
1650870613555844600,7.0778447265625,-0.06106909346878528,-0.009001472704391927,-0.008127502881456167
1650870613565854500,7.0878544921875,-0.08605857329666614,0.014085294757725204,-0.027851926904160062
1650870613575863600,7.097863525390625,-0.08920096297562122,0.009229584655130747,-0.010631453092978336
1650870613585873700,7.107873779296875,-0.08396364684402942,-0.012351277464284794,-0.010557127481442876
1650870613595883500,7.117883544921875,-0.07932488112747668,0.033961826902488244,0.014009188181057106
1650870613605893600,7.1278935546875,-0.0866571237117052,0.037296200056164526,0.00689632853512885
1650870613615902500,7.13790234375,-0.07827741790115833,0.03181124757274519,0.027197600314428562
1650870613625912300,7.147912353515625,-0.08620762637853623,0.021617980401054955,0.03706440059428569
1650870613635922400,7.15792236328125,-0.07887596831619739,0.019966906992089934,0.0034214029831578954
1650870613645932500,7.1679326171875,-0.09159516463577747,-0.0035659408617590084,-0.0028424506052659123
1650870613655941400,7.17794140625,-0.091894439843297,-0.021141558528342284,0.02837098690877901
1650870613665951500,7.187951416015625,-0.08112111689448356,-0.02067531555634923,-0.0021856489306577714
1650870613675961600,7.197961669921875,-0.09234393717646598,-0.01380480416577775,-0.015980374089593533
1650870613685971500,7.207971435546875,-0.09982581736445427,-0.03688105936703505,-0.017705259370151907
1650870613695980500,7.21798046875,-0.08246785532832145,-0.002635922011139337,-0.029937003249640107
1650870613705990700,7.22799072265625,-0.0857598826110363,-0.0134532382236619,-0.03651104559442028
1650870613716000500,7.23800048828125,-0.09264321238398551,0.01079839802456554,-0.01745037129363045
1650870613726010600,7.2480107421875,-0.09024901072382926,-0.0017921498220006468,-0.014769844097428722
1650870613736020500,7.2580205078125,-0.09683306528925895,0.009476038263447116,-0.017572257807361893
1650870613746029600,7.268029541015625,-0.08755553385615349,-0.002537652693368727,0.011093087246868525
1650870613756039700,7.278039794921875,-0.08994973551630973,0.01319058011592715,0.016068411991005994
1650870613766049500,7.288049560546875,-0.06256605402827263,0.014816560182831017,0.03485896068859147
1650870613776089300,7.29808935546875,-0.0670551821410656,0.014124891549174207,0.029123714105377438
1650870613786099500,7.308099365234375,-0.08680734583735465,0.011787527792924083,0.038347143014357425
1650870613796109300,7.318109375,-0.08561024500727653,0.022474757060594857,0.040705332646216265
1650870613806118400,7.328118408203125,-0.07902619044184685,0.017743657435069324,0.03837005353248678
1650870613816128500,7.33812841796875,-0.07693126398921013,0.008325309883832233,0.02835295577845536
1650870613826138600,7.348138671875,-0.07079612223505974,0.006328000870061805,0.009498064007231733
1650870613836148500,7.3581484375,-0.09533668925166129,0.00042228053268045186,-0.017275859543518162
1650870613846157600,7.368157470703125,-0.08022270675003527,-0.019265873450110667,0.002085420836652338
1650870613856167700,7.378167724609375,-0.07244155135452747,0.002843455823085969,-0.027660103259643073
1650870613866177500,7.388177490234375,-0.08980009791254996,-0.010887009031424531,-0.04061371797316242
1650870613876187600,7.398187744140625,-0.08246727080643176,0.00447929627194535,-0.03084165362191852
1650870613886197500,7.408197509765625,-0.08605857329666614,0.02128076150305569,-0.008997613946604541
1650870613896206600,7.41820654296875,-0.09548574233353137,0.0007820594640041235,0.011203395203949184
1650870613906216700,7.428216796875,-0.09787994399368763,0.011252108025259803,0.028610223041730932
1650870613916226600,7.4382265625,-0.0636129327327013,0.01661617864194559,0.037241433095047245
1650870613926236400,7.448236328125,-0.07977379393875599,0.008266727547411574,0.030231860293657518
1650870613936245500,7.45824560546875,-0.0923433526545763,0.01675727788786753,0.008860419695064774
1650870613946255400,7.46825537109375,-0.09009878859817981,-0.001036453208536841,0.006922602908234694
1650870613956265500,7.478265380859375,-0.09219371505081653,0.011782439484208589,0.0021367368924140465
1650870613966275300,7.488275390625,-0.10326689772903919,-0.03568512529744766,-0.00923932059785584
1650870613976284400,7.498284423828125,-0.08710545200109482,-0.003591550227050902,-0.016881022998545086
1650870613986294500,7.50829443359375,-0.07438625568151473,-0.02116129070869647,-0.03214085855302401
1650870613996304600,7.5183046875,-0.07992284702062606,0.015332004599901847,-0.00017769408364256376
1650870614006314500,7.528314453125,-0.0897989288687706,-0.0005263790863275062,-0.007204570217104628
1650870614016324600,7.53832470703125,-0.08097031024694443,0.014489255324070109,0.00876087059401616
1650870614026333700,7.548333740234375,-0.07752864536046981,0.005749876755120931,0.031642658673343246
1650870614036374500,7.55837451171875,-0.08261632388830184,0.017815933795057935,0.006878675289073726
1650870614046383600,7.568383544921875,-0.08770400241613388,0.017552029011730336,0.01436437085236539
1650870614056393700,7.578393798828125,-0.10625906528234481,0.008338091733591863,0.00627256890113058
1650870614066403600,7.588403564453125,-0.08620762637853623,0.01058793475330458,0.01791076790508232
1650870614076399000,7.598399169921875,-0.09698094932734966,0.0005732413022022228,0.0046392223742790515
1650870614086408200,7.608408203125,-0.08575812904536724,0.009034460516896797,-0.023143198940646835
1650870614096418000,7.61841796875,-0.06391045437455177,0.019635405448824167,-0.018482148327049797
1650870614106428200,7.62842822265625,-0.058224225431680675,0.0066833547880174584,0.004263320285694499
1650870614116438300,7.638438232421875,-0.09323942471146583,0.015134381402260623,0.008616683771042152
1650870614126447000,7.648447021484375,-0.07423486451208591,0.01162341642252868,0.03727338086958043
1650870614136457200,7.658457275390625,-0.0808189190775156,0.033636821315379345,0.04648117153472267
1650870614146467300,7.66846728515625,-0.07199030045568942,0.0042981504267139824,0.03821066628627013
1650870614156477200,7.678477294921875,-0.09308920258581638,-0.0029012481416400985,0.03300165151726687
1650870614166487300,7.6884873046875,-0.08321312073767184,-0.006314948450599331,0.01816401543872198
1650870614176496400,7.698496337890625,-0.08830138378739356,-0.004218549276795238,-0.01893792927053291
1650870614186506200,7.70850634765625,-0.09054594784379005,-0.006035080054803984,-0.012449502257927087
1650870614196516400,7.718516357421875,-0.09653145199418067,0.007359325812332099,-0.012524072181346126
1650870614206526200,7.728526123046875,-0.09982347927689551,0.0103531179254991,0.004240843306994066
1650870614216535000,7.73853515625,-0.07782616700232028,0.018693237219395812,0.014183783271204446
1650870614226545200,7.748545166015625,-0.07977145585119724,-0.006757134693569969,0.019593771963915787
1650870614236555000,7.758554931640625,-0.08680442322790623,0.008107873449090402,0.02107112820721231
1650870614246565000,7.768565185546875,-0.07633037548661231,-0.0017219238552032038,0.020511658560391513
1650870614256574200,7.77857421875,-0.08889934968054294,0.0051678482166200405,0.021539588252466636
1650870614266584000,7.788583984375,-0.092491236692667,0.0032377934694930444,0.0017727218898566206
1650870614276594200,7.79859423828125,-0.07064414654374122,-0.005573440192692214,-0.004754406294232467
1650870614286604300,7.808604248046875,-0.09278992737829685,-0.010533248848933726,-0.04563101184563711
1650870614296644000,7.81864404296875,-0.08156710709631443,0.0086941237882711,-0.016762480361014603
1650870614306654200,7.828654296875,-0.07618015336096286,0.01535530670203152,-0.00940349247539998
1650870614316664300,7.838664306640625,-0.08096855668127537,-0.0005582149797177408,0.024736390982801094
1650870614326673200,7.848673095703125,-0.09503449143469334,0.004082258636731421,0.03867341582665686
1650870614336683300,7.858683349609375,-0.07423486451208591,0.024194082533335312,0.04804986388985999
1650870614346693400,7.868693359375,-0.07243921326696873,0.006930289028590777,0.039248891326785086
1650870614356703200,7.878703125,-0.09458557862341403,0.018141960012185154,0.02337274023006903
1650870614366712000,7.888712158203125,-0.0942863034158945,-0.003203295261558378,0.031328128814476074
1650870614376722200,7.89872216796875,-0.09278992737829685,-0.008407557365274987,-0.0045020324039054685
1650870614386732000,7.90873193359375,-0.07947218064367771,0.002931460616813274,-0.03632241855398752
1650870614396742100,7.9187421875,-0.07977145585119724,-0.027250675358669832,-0.02868703287129756
1650870614406751200,7.928751220703125,-0.06780044755041599,-0.0016503735809994394,-0.03520932676253142
1650870614416761000,7.938760986328125,-0.09862637844681739,0.00507139525495586,-0.025879364172578787
1650870614426771200,7.948771240234375,-0.062114218607544895,0.01560447742381948,0.0052758968595997425
1650870614436781000,7.958781005859375,-0.08291384553015231,0.004419221806403948,0.013430230665765703
1650870614446790100,7.9687900390625,-0.07288871060013771,0.006794480162428226,0.040861112296395004
1650870614456800300,7.97880029296875,-0.0751326901346445,0.025755386166460812,0.05746996843169909
1650870614466810000,7.98881005859375,-0.08396130875647068,0.034752095930767245,0.0690919349659467
1650870614476820200,7.9988203125,-0.08650573254227638,0.026063246539235113,0.03512708498931024
1650870614486830300,8.008830322265625,-0.1203238309919834,-0.005142463755258358,0.04634436601307243
1650870614496839200,8.018839111328125,-0.0751326901346445,0.009102996850106865,0.0004438116590652498
1650870614506849300,8.028849365234375,-0.07184066285192967,-0.0019825658190762625,-0.002657799911985057
1650870614516859400,8.038859375,-0.11029811154007911,-0.0042907354468829,-0.01991331820790656
1650870614526869000,8.048868896484375,-0.1043120228677988,-0.00674858948586625,-0.019239065358287188
1650870614536878000,8.058878173828125,-0.07543196534216404,-0.010576970401295693,0.009465036807997967
1650870614546919200,8.068919189453124,-0.06854863556921481,-0.00801379853253602,0.011563687875214964
1650870614556928300,8.07892822265625,-0.09353869991898536,0.009554957851709333,0.03353993909545243
1650870614566938000,8.088938232421874,-0.07588146267533302,0.03675704254501033,0.03451247392203659
1650870614576948200,8.0989482421875,-0.06630465603470802,0.026775997918471694,0.03310245642706286
1650870614586958000,8.1089580078125,-0.07124269695878029,0.020052064524893647,0.055892604146338995
1650870614596967200,8.11896728515625,-0.10476210472285746,0.01823878058331902,0.0014644519521840266
1650870614606977300,8.128977294921874,-0.08755378029048443,-0.015559772915701613,0.001052893172095355
1650870614616987100,8.138987060546874,-0.07453530876338481,0.011565122922119917,-0.006961453635123325
1650870614626997200,8.148997314453124,-0.07722937015295028,-0.010206776248879031,-0.027046074430970474
1650870614637007400,8.15900732421875,-0.08141922305822372,-0.011886325692012905,-0.04336983458115719
1650870614647016200,8.16901611328125,-0.14636252761185167,-0.0013213299979455769,-0.09921602403619326
1650870614657026300,8.1790263671875,-0.08141980758011341,0.008576653154753148,0.16043648127494378
1650870614667036400,8.189036376953124,0.09455459896326064,0.08745703278458676,-0.03211392259703716
1650870614677046000,8.1990458984375,0.19286592011153697,-0.08821893880148418,-0.12263501227749511
1650870614687055000,8.20905517578125,-0.05209200628697872,-0.050354788964521134,-0.045791988260741344
1650870614697065200,8.219065185546874,-0.33745091665685173,0.04923433813380543,0.13066740248771383
1650870614707075000,8.229074951171874,-0.40837855631709097,0.09009936398691497,0.018313511478586588
1650870614717085200,8.239085205078124,-0.0648112026065588,0.10040694172065705,-0.05937628154363483
1650870614727094300,8.24909423828125,0.07554770067632198,-0.013586304860177915,-0.09778669448597356
1650870614737104100,8.259104248046874,-0.1417260999828577,0.000213756915112026,-0.01852146084906417
1650870614747114200,8.2691142578125,-0.24886662427484987,0.04001713575292378,0.0524168086613994
1650870614757124000,8.2791240234375,-0.3335626770466566,0.046199048391403624,0.06321965453221928
1650870614767133200,8.28913330078125,-0.10387012431919575,0.010734463659592438,-0.06537621607817709
1650870614777143300,8.299143310546874,-0.08890694846510887,0.09434624430905096,-0.1299465500004124
1650870614787153200,8.309153076171874,-0.10925766257643699,0.03950788475626614,-0.01606975342307705
1650870614797163300,8.319163330078124,-0.18991291552484035,-0.0005708678236696869,0.004132802370113495
1650870614807203300,8.329203369140625,-0.08352057925164699,0.013684995444701052,0.04995635053173173
1650870614817213200,8.339213134765625,-0.07903203566074371,0.041978782081557434,-0.012234627673029899
1650870614827223000,8.34922314453125,-0.11554361097812652,0.047174350563809274,-0.01818014915619278
1650870614837232000,8.359232177734375,-0.09279869520664215,0.040507978876633564,-0.02156554467763053
1650870614847242200,8.3692421875,-0.04940379011631012,0.06465293417177162,-0.00006904293787520146
1650870614857252000,8.379252197265625,-0.0655646513223648,0.027824109598761422,0.0008049320224599796
1650870614867262200,8.38926220703125,-0.02426525720655918,0.010004226856015156,0.043449375223927195
1650870614877271300,8.399271240234375,-0.08950725244581699,0.006142395762132946,0.037562102717044764
1650870614887281200,8.40928125,-0.0863654472887516,-0.007832070448703599,0.021447439289873
1650870614897291300,8.419291259765625,-0.06945639806389808,-0.0023433962048147803,0.03606613995468942
1650870614907301000,8.429301025390625,-0.08292495144605636,-0.0418447165062651,0.01028810813158052
1650870614917310200,8.439310302734375,-0.07394669522047043,-0.03855715990269091,-0.034927361166127956
1650870614927320300,8.4493203125,-0.05718786812126636,-0.046440830391179765,-0.06375710414347704
1650870614937330200,8.459330078125,-0.07694061633944511,-0.027074220529932063,-0.08003294719844124
1650870614947340300,8.46934033203125,-0.08292670501172542,-0.01537947873712983,-0.05974938003919087
1650870614957350100,8.47935009765625,-0.06571896510124206,0.016476519009505863,-0.022445099424559155
1650870614967359000,8.48935888671875,-0.1385936471760273,0.02460540328058414,-0.009925810732896206
1650870614977369000,8.499369140625,-0.06482230852246285,0.05136450486318208,0.021388991667481604
1650870614987379200,8.509379150390625,-0.11375497399568557,0.032305807890347205,0.036275280060188375
1650870614997389000,8.51938916015625,-0.07275427056550979,0.04329958235654048,0.06471718591386452
1650870615007398100,8.529398193359375,-0.09804302560091017,0.023811248095054176,0.07305094282398931
1650870615017408300,8.539408203125,-0.08786766854524612,0.006882859415491111,0.08088425766499713
1650870615027418000,8.549418212890625,-0.07440028420686721,-0.023741484494204632,0.04860875358136836
1650870615037428200,8.55942822265625,-0.06467325544059276,-0.03081970436830306,0.02402075809331145
1650870615047437300,8.569437255859375,-0.10402794522941113,-0.02913431084791664,0.0005413563181064092
1650870615057447200,8.579447265625,-0.08008534410595894,-0.04088417351157404,-0.05250078345069196
1650870615067487200,8.5894873046875,-0.09385200365185738,-0.004059495390718803,-0.05777178722275421
1650870615077486600,8.599486572265626,-0.0925046806961298,-0.001936167110793758,-0.06285853416882455
1650870615087496400,8.609496337890626,-0.10073416438102721,0.039323920191219074,-0.0610180848007556
1650870615097506600,8.619506591796876,-0.09594576106071472,0.03343035037429072,-0.05224286316686775
1650870615107516400,8.629516357421876,-0.08592004160881042,0.047885366643685846,-0.00467123351007176
1650870615117525200,8.639525146484376,-0.0721527975410223,0.06763070787354372,0.02872878737050341
1650870615127535400,8.649535400390626,-0.08965981265902519,0.036174737728585024,0.06301139577613211
1650870615137545500,8.65954541015625,-0.08217734794914722,-0.004711513575643767,0.037633295656577685
1650870615147555300,8.669555419921876,-0.07858546093702316,-0.03802145700723631,0.027892959884158335
1650870615157564400,8.679564453125,-0.07230009705722332,-0.08393604645105078,0.0033052894793203446
1650870615167574500,8.689574462890626,-0.0720002373278141,-0.08013578651840798,-0.040574687437294046
1650870615177584400,8.69958447265625,-0.08905833963453769,-0.05727333618132397,-0.04119660046161152
1650870615187594500,8.709594482421876,-0.052395957669615745,-0.0193432837845874,-0.03898521715560928
1650870615197603600,8.719603515625,-0.08142506827712058,-0.010838787117169704,-0.00828286012323806
1650870615207613400,8.729613525390626,-0.106264325979352,0.019770553302927873,0.012220026042230893
1650870615217623600,8.73962353515625,-0.05553659378290176,0.06445909210010431,0.017724444702878827
1650870615227633400,8.74963330078125,-0.07768237461745739,0.08509014838961884,0.04903922655365895
1650870615237642500,8.759642578125,-0.07813128742873668,0.08681295359423384,0.07330958919359837
1650870615247652600,8.769652587890626,-0.062119479304552076,0.07862496183034963,0.09332800717721693
1650870615257662500,8.779662353515626,-0.08067454217076302,0.03955464650744107,0.0797354346897453
1650870615267672600,8.789672607421876,-0.07409048760533332,-0.016782612116879318,0.02094404036197811
1650870615277682400,8.799682373046876,-0.07603577645421028,-0.04762741896039806,-0.0038290219487127613
1650870615287691300,8.809691162109376,-0.09055062401890754,-0.09719157813703641,-0.02510724043905502
1650870615297701400,8.819701416015626,-0.09025076428949833,-0.09875184972370042,-0.05221914436456281
1650870615307711500,8.82971142578125,-0.0716951169013977,-0.09331385078770107,-0.02528795131780207
1650870615317751300,8.839751220703125,-0.06945055284500122,-0.0359459316581022,0.01568585953887086
1650870615327761400,8.849761474609375,-0.09683364981114864,0.0018504330476105677,0.03570542829995975
1650870615337771500,8.859771484375,-0.06062134970128536,0.025435200601653194,0.07016174702139105
1650870615347780400,8.8697802734375,-0.07708148611485957,0.06768584472741931,0.059315062008844684
1650870615357790500,8.87979052734375,-0.0942903950691223,0.06121759856138378,0.056360742247896264
1650870615367800600,8.889800537109375,-0.06316577348709106,0.07106555942674167,0.01998721227789065
1650870615377810400,8.899810546875,-0.07349076814651488,0.05160859755105339,0.0088198599266354
1650870615387820500,8.909820556640625,-0.05089607450067997,0.016913074662711004,-0.015112142170988954
1650870615397829600,8.91982958984375,-0.14187632210850715,-0.012520237398089374,0.008045082440899569
1650870615407839500,8.929839599609375,-0.06586041939854621,-0.04131602102362085,0.03191218719657045
1650870615417849600,8.939849609375,-0.0715466483414173,-0.044546194017305966,0.020903913847566583
1650870615427859500,8.949859375,-0.10132453148961067,-0.06273549231104553,0.008442868994784657
1650870615437868300,8.959868408203125,-0.05523614953160286,-0.05047446068827994,-0.00023078339843777938
1650870615447878400,8.96987841796875,-0.09069967710077761,-0.047259161036740986,0.031649928664346225
1650870615457888300,8.97988818359375,-0.10192191286087035,-0.019801105988107155,0.01424580081537133
1650870615467898400,8.9898984375,-0.016628478717803954,0.041875038579292596,-0.020047036723326892
1650870615477907500,8.999907470703125,-0.11823241167068481,0.055750063003646204,-0.009003708043962251
1650870615487917300,9.009917236328125,-0.035633038917183876,0.08188994584251194,-0.031863840843085196
1650870615497927400,9.019927490234375,-0.05867722989618778,0.06527101127118803,-0.05894157078764401
1650870615507937500,9.0299375,-0.1294564009964466,0.022208690002933143,-0.05323095175561029
1650870615517946400,9.0399462890625,-0.10267126992344856,-0.010626249478186946,-0.06439208214534446
1650870615527956500,9.04995654296875,-0.03683072426915168,-0.050732787397480564,-0.027685294783115384
1650870615537966600,9.059966552734375,-0.16192834553420543,-0.0906858769042883,-0.0770598679380957
1650870615547976400,9.0699765625,-0.1638730498611927,-0.10241897566281258,-0.07576459483001381
1650870615557986600,9.079986572265625,-0.002563128486275673,-0.05868935415882151,-0.019617906324751674
1650870615567995400,9.089995361328125,-0.11134908189773558,-0.030776436048734465,0.053451759466016664
1650870615578036200,9.1000361328125,-0.11508885294795036,0.011950319422490429,0.17449817824466152
1650870615588045300,9.11004541015625,0.0047714521855115885,0.0647361509092385,0.22366764814844353
1650870615598055400,9.120055419921876,-0.10506254897415637,0.10000897364532574,0.28658682646332306
1650870615608065300,9.130065185546876,-0.07678045734167098,0.10559970632446929,0.23787149353520942
1650870615618075400,9.140075439453126,-0.07229132922887802,0.06836522812659386,0.1156799415757414
1650870615628084500,9.15008447265625,-0.11568623431921005,0.029677678743307477,-0.04718719177907332
1650870615638094300,9.16009423828125,-0.06301321327388286,-0.0035631312750978392,-0.1907841088688001
1650870615648104400,9.1701044921875,-0.08680617679357529,-0.054949350213166326,-0.29656412192992865
1650870615658114600,9.180114501953126,-0.1171826103568077,-0.10957501229676417,-0.26462527962187304
1650870615668123400,9.190123291015626,-0.09039689476191996,-0.11688591983201913,-0.21984279263066125
1650870615678133500,9.200133544921876,-0.12137129421830177,-0.13394857044969685,-0.10753844670155085
1650870615688143600,9.2101435546875,-0.10266542470455169,-0.06386427257868926,0.030483894259389487
1650870615698153500,9.220153564453126,-0.08799977049231529,-0.022622147908341137,0.15121335604335182
1650870615708163600,9.23016357421875,-0.09727671740353107,0.028404128843266516,0.2511951402876526
1650870615718172400,9.24017236328125,-0.10311083038449287,0.07047782723323907,0.23813900363128632
1650870615728182300,9.250182373046876,-0.038915129327774044,0.09300811843993141,0.1844356166249141
1650870615738192400,9.2601923828125,-0.05806815808713436,0.09384709001472219,0.04686071347079705
1650870615748202200,9.2702021484375,-0.08425356970131397,0.07898033287297003,-0.08730539501998573
1650870615758211300,9.28021142578125,-0.0580664045214653,0.04012844607371371,-0.16912408399088308
1650870615768221400,9.290221435546876,-0.023200258323550223,0.0029914426091650964,-0.19321398463053627
1650870615778231300,9.300231201171876,-0.06749298903644084,-0.04017235371409915,-0.17800244177225977
1650870615788241400,9.310241455078126,-0.12001520343422889,-0.08007378153232857,-0.10687390924505889
1650870615798250500,9.32025048828125,-0.07826631198525429,-0.13096609317334368,0.012126198862493038
1650870615808260400,9.33026025390625,-0.0451958170324564,-0.13502557943090795,0.13551593849742785
1650870615818270500,9.3402705078125,-0.03921031288206577,-0.1021129236546345,0.21349070192389188
1650870615828280600,9.350280517578126,-0.12510171291828154,-0.052578250867384484,0.25970064616864547
1650870615838320400,9.3603203125,-0.11073591843545436,0.007727461580047383,0.24216413096152245
1650870615848330500,9.37033056640625,0.07361819391846657,0.05669419828623067,0.12663311460348778
1650870615858340600,9.380340576171875,-0.23044600144326685,0.05838206460820511,0.030166001116367986
1650870615868349400,9.390349365234375,-0.037412908071279526,0.10763844561045989,-0.11886185041433199
1650870615878359300,9.400359375,0.061946460825204844,0.12644842395265585,-0.2073990157189779
1650870615888369400,9.410369384765625,-0.18555472031533718,0.08479579595238901,-0.20020508562689646
1650870615898379300,9.420379150390625,-0.16370821468830107,0.0978325611880049,-0.10350622291024773
1650870615908388400,9.430388427734375,0.023638065218925475,0.0791423824337311,0.03146236106983851
1650870615918398500,9.4403984375,-0.047290158963203426,0.016945068103016818,0.12057826241077854
1650870615928408300,9.450408203125,-0.22820260643064974,-0.025330009494395924,0.24807952901776878
1650870615938418400,9.46041845703125,-0.06644377224445343,-0.054472951173339966,0.2750646579085849
1650870615948427500,9.470427490234375,0.1391588798433542,-0.05716814050748944,0.1694338257934898
1650870615958437400,9.480437255859375,-0.18989479534626005,-0.14485853452337905,0.03596681233263807
1650870615968447500,9.490447509765625,-0.23448621674478054,-0.11727489175014197,-0.09916740825464948
1650870615978457300,9.500457275390625,0.06748363668620586,-0.10277105876980348,-0.21028032504264263
1650870615988466400,9.510466552734375,-0.028883564656972883,-0.060909299797192215,-0.25532208402454853
1650870615998476500,9.5204765625,-0.2506464934289455,-0.033243915290944274,-0.2345052319725044
1650870616008486400,9.530486328125,-0.050880292409658426,0.044386025886377314,-0.1333175882029347
1650870616018496500,9.54049658203125,0.05296820459961891,0.11894948303201235,-0.015698765827860915
1650870616028506600,9.550506591796875,-0.1655032814115286,0.1115671176957432,0.08883975584725849
1650870616038515500,9.560515380859375,-0.160116327676177,0.12336690674861893,0.19686087149921805
1650870616048525300,9.570525390625,0.021543723288178444,0.09139709391356446,0.24818525441456585
1650870616058535400,9.580535400390625,-0.07257832947671412,0.031589368999970606,0.24711576201952992
1650870616068545300,9.590545166015625,-0.17852175293862818,-0.045284353832434864,0.18304882017532362
1650870616078572300,9.600572265625,-0.058362757119536396,-0.07577389238132164,0.051633508230024015
1650870616088582400,9.61058251953125,-0.03696399526000023,-0.1063801161124371,-0.06566846332328859
1650870616098622200,9.620622314453126,-0.12554945668578146,-0.1275613444974646,-0.15625504913814364
1650870616108632300,9.63063232421875,-0.10998714589476585,-0.09818494568909518,-0.22862667706161735
1650870616118642400,9.640642333984376,-0.032923779958486554,-0.05193753724447451,-0.2300969870761968
1650870616128652300,9.65065234375,-0.09577157353758811,0.0014782296011981088,-0.14001045517139135
1650870616138661400,9.660661376953126,-0.11926467732787131,0.04640501929228194,-0.04476093731310684
1650870616148671500,9.67067138671875,-0.03037994069457054,0.0864719855363015,0.07949178952644578
1650870616158681300,9.680681396484376,-0.0644973143517971,0.12113580496199429,0.176184414298553
1650870616168691500,9.69069140625,-0.1262976447045803,0.09907085254499688,0.2324480619806796
1650870616178701300,9.700701416015624,-0.06180383748412132,0.0732826235548593,0.21697691833814606
1650870616188710400,9.71071044921875,-0.029781390279531476,0.027439608359779228,0.16478673064000904
1650870616198720500,9.720720458984376,-0.12539981908202172,-0.02814653506971663,0.057418352408893404
1650870616208730400,9.73073046875,-0.10819149464964865,-0.09815038583236746,-0.06767925972300581
1650870616218740500,9.740740478515624,-0.0332224706441164,-0.08590233242218383,-0.17079028190374373
1650870616228749300,9.750749267578126,-0.10714344690144062,-0.11200688821934163,-0.20104354574503375
1650870616238759200,9.76075927734375,-0.11881576451659202,-0.10622793035856447,-0.2017770841839723
1650870616248769300,9.770769287109376,-0.06285071618855,-0.04777734882510267,-0.1438296116007492
1650870616258779400,9.780779296875,-0.059708326509594914,0.009195588199872873,-0.05322804284589365
1650870616268788200,9.790788330078126,-0.10100830514729023,0.03972335413785186,0.05909768379796296
1650870616278798300,9.80079833984375,-0.09726736505329608,0.10321121288589201,0.16398767095049843
1650870616288808400,9.810808349609376,-0.05402209756672382,0.09412535896683111,0.20954267668416723
1650870616298818300,9.820818359375,-0.07886193979084491,0.10058072738498448,0.22427034501563756
1650870616308827400,9.830827392578126,-0.08739128320515155,0.06302769845696166,0.153659698882699
1650870616318837500,9.84083740234375,-0.06659165628254413,0.017938952819950643,0.0947085291496478
1650870616328847400,9.850847412109376,-0.07287643564045429,-0.032557380631775594,-0.02407846593018621
1650870616338857500,9.860857421875,-0.09517243860065937,-0.07870353435873985,-0.13475766747603193
1650870616348867300,9.870867431640624,-0.08469780633747577,-0.0846474917891901,-0.1909856045239605
1650870616358907400,9.880907470703125,-0.07123042199909686,-0.08643367195306345,-0.20779245374966412
1650870616368917500,9.89091748046875,-0.09607026422321796,-0.07311896655890159,-0.1653435242725536
1650870616378926300,9.90092626953125,-0.09517243860065937,-0.032385540329362264,-0.052411803692718965
1650870616388936200,9.910936279296875,-0.07018295877277851,0.007219178697769529,0.03479774572037859
1650870616398946300,9.9209462890625,-0.07212824762165546,0.02503298789275577,0.09854678300512022
1650870616408956400,9.930956298828125,-0.0772159261494875,0.048802161828195675,0.20579218331053853
1650870616418965200,9.94096533203125,-0.06449614530801773,0.06880549640711396,0.21373294971454887
1650870616428975400,9.950975341796875,-0.07556932798624039,0.056912101653497665,0.1791108231392689
1650870616438985500,9.9609853515625,-0.07347440153360367,0.043729091781028545,0.12034939469150267
1650870616448995300,9.970995361328125,-0.09322656522989273,0.04138914562533609,-0.030578591372095978
1650870616459004400,9.98100439453125,-0.07317512632608414,-0.01542636721082381,-0.10348201091759837
1650870616469014500,9.9910146484375,-0.08005845609903335,-0.04903957818010821,-0.17897696762653068
1650870616479024400,10.0010244140625,-0.09247837721109389,-0.06523216796498746,-0.16700886366888879
1650870616489034500,10.011034423828125,-0.0737736767411232,-0.07359925632255616,-0.16535674908030779
1650870616499044400,10.02104443359375,-0.0632990444779396,-0.06352434570037294,-0.09187736084433272
1650870616509053400,10.031053466796875,-0.0867921482682228,-0.0386861337443348,0.004808466577518266
1650870616519063600,10.0410634765625,-0.07990881849527358,-0.0058437564504973125,0.08882722515924833
1650870616529073400,10.051073486328125,-0.06255085645914077,0.019171591895935123,0.1807543708289042
1650870616539083500,10.06108349609375,-0.06973346143960953,0.04785355129989329,0.20121033541299402
1650870616549092400,10.07109228515625,-0.07556932798624039,0.04916468869738746,0.17698151949299498
1650870616559102200,10.081102294921875,-0.0628501316666603,0.06514346676822752,0.0896156629900448
1650870616569112300,10.0911123046875,-0.08050736891031265,0.04568413483893964,0.027802865881333128
1650870616579122400,10.101122314453125,-0.06120411802530289,0.031279894342133775,-0.07262360709027853
1650870616589131300,10.11113134765625,-0.08619359785318374,-0.007891798425195155,-0.1523297928526532
1650870616599141400,10.121141357421875,-0.1255482876420021,-0.012451599458535202,-0.17963351357281207
1650870616609151500,10.1311513671875,-0.07152911268472671,-0.07053580449817236,-0.15262703136671332
1650870616619191300,10.14119140625,-0.08125555692911147,-0.05428209107662551,-0.11556529308697208
1650870616629201400,10.151201416015626,-0.0785620800614357,-0.06562826831021812,-0.017198493733169742
1650870616639211500,10.16121142578125,-0.08589432264566421,-0.06097558823274448,0.060791130477352996
1650870616649221400,10.171221435546874,-0.07661679121255874,-0.034555038988706654,0.1408851830461528
1650870616659230500,10.18123046875,-0.10310264707803726,0.0030894219492794946,0.17721879884758962
1650870616669240600,10.191240478515626,-0.0972661960095167,0.04398266924987547,0.17939069952657447
1650870616679250400,10.20125048828125,-0.07945932116210461,0.049633995842724106,0.09730392507086508
1650870616689260500,10.211260498046874,-0.06269990954101086,0.0548005756925093,0.02434917263034731
1650870616699269400,10.221269287109376,-0.07287526659667491,0.0644900352276396,-0.039402602317463606
1650870616709279200,10.231279296875,-0.08484627489745616,0.025286462613614273,-0.11308519410849548
1650870616719289300,10.241289306640626,-0.07781330752074718,0.018039404961653054,-0.12982578229811043
1650870616729299200,10.25129931640625,-0.08140461001098155,-0.016339536532986674,-0.14949709017737767
1650870616739308300,10.261308349609376,-0.0968178677201271,-0.06425899838416371,-0.10151153282853774
1650870616749318400,10.271318359375,-0.08754033628702163,-0.06461832408269401,-0.04356174042406492
1650870616759328300,10.281328369140626,-0.08350012098550796,-0.06273119059526361,0.03558819512845948
1650870616769338400,10.29133837890625,-0.09651859251260757,-0.07057780787583906,0.0879957519043237
1650870616779348500,10.301348388671874,-0.07407295194864273,-0.04240182066606357,0.15789700765889136
1650870616789357300,10.311357421875,-0.08709083895385265,-0.0074183351237268646,0.12179723714594728
1650870616799367400,10.321367431640626,-0.08065642199218273,0.013189325448824092,0.10713716329112648
1650870616809377500,10.33137744140625,-0.08080605959594249,0.043734800002607516,0.07473500975368079
1650870616819387400,10.341387451171874,-0.07422200503051281,0.037327056418731804,-0.024417296829959377
1650870616829396500,10.351396484375,-0.07332417940795422,0.04910684842977207,-0.10339448789777234
1650870616839406600,10.361406494140626,-0.07422200503051281,0.05010614796569571,-0.12089721956630237
1650870616849416400,10.37141650390625,-0.0712292529553175,0.01931317634069128,-0.13141457672636023
1650870616859426600,10.381426513671874,-0.08125555692911147,-0.028597178613778668,-0.11087420352813787
1650870616869435400,10.391435302734376,-0.07167875028848647,-0.027465519119170494,-0.03383243521902477
1650870616879476200,10.401476318359375,-0.06823708540201187,-0.07407650931233074,0.04059688100279309
1650870616889485300,10.4114853515625,-0.0959200420975685,-0.06546917332494631,0.10651595351970754
1650870616899495400,10.421495361328125,-0.08694178587198256,-0.0618323877251707,0.12010436128871514
1650870616909505300,10.43150537109375,-0.08933540301024913,-0.0541499069311656,0.15268682612939738
1650870616919515400,10.441515380859375,-0.07497019304931163,-0.02073327912155073,0.12774356006341986
1650870616929525200,10.451525146484375,-0.08155424761474132,0.024585593468416482,0.0811358578058891
1650870616939534300,10.461534423828125,-0.08619301333129406,0.04789014328350313,0.013119335802400019
1650870616949544400,10.47154443359375,-0.08275134844481945,0.051333945328136905,-0.06804541245454457
1650870616959554600,10.481554443359375,-0.0685357760876417,0.049680305502749975,-0.12193944949507712
1650870616969564400,10.491564453125,-0.08349953646361827,0.04897188323875889,-0.1482657308846712
1650870616979573500,10.501573486328125,-0.08798866457641125,0.02794052535293158,-0.09770658758762292
1650870616989583600,10.51158349609375,-0.09053250384032725,-0.023310559430764988,-0.05203506106850691
1650870616999593500,10.521593505859375,-0.08484627489745616,-0.04974818310718983,0.02013999625338474
1650870617009603600,10.531603515625,-0.07227730070352553,-0.0765681206320878,0.08069084485159254
1650870617019612400,10.5416123046875,-0.0772153416275978,-0.06597787176575512,0.12938527198899535
1650870617029622300,10.551622314453125,-0.07093056226968765,-0.057013488801894704,0.14086866116961463
1650870617039632400,10.56163232421875,-0.10609481463134288,-0.05149515920525882,0.10955158575540408
1650870617049642200,10.571642333984375,-0.10130641131103038,-0.016099961331672966,0.0692355035885237
1650870617059651300,10.5816513671875,-0.07751403231322765,0.02194848643047735,0.00014205080645915587
1650870617069661400,10.591661376953125,-0.07063070254027844,0.04746874410023447,-0.051523385219322516
1650870617079662300,10.601662353515625,-0.09008359102904796,0.04155687600821256,-0.09100441393470392
1650870617089672400,10.61167236328125,-0.060604983088374136,0.05923322894428856,-0.12482625697776674
1650870617099682300,10.621682373046875,-0.06299918474853039,0.04917077594487928,-0.11448498703697696
1650870617109691100,10.631691162109375,-0.07556874346435069,0.021141725208412388,-0.07946751360171474
1650870617119701200,10.641701171875,-0.08020750918090343,-0.022505508391885084,-0.006022001377522247
1650870617129711000,10.651711181640625,-0.06449614530801773,-0.043738955587917,0.038576047266251405
1650870617139751200,10.661751220703126,-0.08275193296670913,-0.07727223204714245,0.12405106222103349
1650870617149761300,10.67176123046875,-0.06868541369140148,-0.060145224656094794,0.1525538291331846
1650870617159771100,10.681771240234376,-0.09053250384032725,-0.07049317549942061,0.14504952705083415
1650870617169780200,10.6917802734375,-0.07347381701171397,-0.036119913685251956,0.08498904436901211
1650870617179790300,10.701790283203126,-0.08320026125609874,-0.01737374412715435,0.03854686227096245
1650870617189800200,10.71180029296875,-0.08080605959594249,0.03828057830088073,-0.01211683623745921
1650870617199810300,10.721810302734376,-0.07841185793578624,0.03904260989865288,-0.09121107895532622
1650870617209819400,10.7318193359375,-0.07571838106811046,0.06034162857760675,-0.10746016643410548
1650870617219829200,10.741829345703126,-0.0803571467846632,0.06515426215687767,-0.13400001750914378
1650870617229839400,10.75183935546875,-0.07945932116210461,0.04599647045743186,-0.09357599058891646
1650870617239849200,10.76184912109375,-0.060904258295893667,0.02380180669656256,-0.011221849884313996
1650870617249859300,10.771859375,-0.07736439470946789,-0.028405307020200415,0.038756093708006666
1650870617259868200,10.7818681640625,-0.05387129091918468,-0.023858765614766162,0.10952671617562881
1650870617269878300,10.791878173828126,-0.07332417940795422,-0.04351928495524916,0.12207454711683094
1650870617279888100,10.80188818359375,-0.08020750918090343,-0.06044818052488844,0.1349181644005235
1650870617289898200,10.811898193359376,-0.07616729387938975,-0.04316838459176942,0.11266375382603146
1650870617299907300,10.8219072265625,-0.0972661960095167,-0.0349437871445436,0.05941323428684845
1650870617309917200,10.831917236328126,-0.06793722567260264,0.005830838745064102,-0.028397685402748174
1650870617319927300,10.84192724609375,-0.08275134844481945,0.011799188547965604,-0.08313115980895236
1650870617329937200,10.851937255859376,-0.08978431582152843,0.027250168468593617,-0.10107495890902354
1650870617339946200,10.8619462890625,-0.07063070254027844,0.060902765025128605,-0.12198559932489879
1650870617349956400,10.871956298828126,-0.07182780337035656,0.042189141463185656,-0.10805329175535588
1650870617359966200,10.88196630859375,-0.07048106493651866,0.024693506255722603,-0.032821538860141296
1650870617369976300,10.891976318359376,-0.08170388521850108,0.005988918808539165,0.005247920865641208
1650870617379985400,10.9019853515625,-0.07287526659667491,-0.016351691620016935,0.07310803417293354
1650870617389995300,10.911995361328126,-0.08005787157714367,-0.03463323934104992,0.115778059054818
1650870617400036400,10.922036376953125,-0.08245207323729992,-0.05775437486364972,0.14605687746247276
1650870617410045200,10.932045166015625,-0.08364917406737804,-0.032224858458491504,0.09058123835287987
1650870617420055000,10.942054931640625,-0.07257599138915538,-0.0479172550527146,0.05286929710267577
1650870617430065200,10.952065185546875,-0.07721475710570812,-0.05080352367928717,-0.0036677966551476853
1650870617440075300,10.9620751953125,-0.07497019304931163,-0.01140850416336907,-0.058328754385234785
1650870617450084000,10.972083984375,-0.07033084281086921,0.005114380446734139,-0.0831249035981018
1650870617460094200,10.98209423828125,-0.060005848151445385,0.035124363309261386,-0.11007087865546344
1650870617470104300,10.992104248046875,-0.08679097922444343,0.051583997399336654,-0.10908871748400852
1650870617480114200,11.0021142578125,-0.07063070254027844,0.028444785080640574,-0.034958021165872925
1650870617490123300,11.012123291015625,-0.058958969447016715,0.03970448504060041,-0.0026437371373031053
1650870617500133400,11.02213330078125,-0.07945932116210461,0.026091805913439018,0.05551063735773787
1650870617510143200,11.032143310546875,-0.06958323931396007,-0.007119428667321335,0.08733421012251637
1650870617520153300,11.0421533203125,-0.06778758806884289,-0.025822772863844875,0.09909603265202603
1650870617530162400,11.052162353515625,-0.06584229921996593,-0.04230809166773688,0.08922830764027312
1650870617540172300,11.06217236328125,-0.07975801184773444,-0.03354508562802803,0.08054223929429426
1650870617550182400,11.072182373046875,-0.08783844245076179,-0.03748008013953222,0.023771502889844122
1650870617560192300,11.082192138671875,-0.07616670935750007,-0.029562258502980693,-0.029066620473144573
1650870617570202400,11.092202392578125,-0.07287468207478523,0.004119995689589996,-0.060258914163638835
1650870617580211200,11.102211181640625,-0.0686848291695118,0.013306580311566358,-0.09205603274633176
1650870617590221000,11.112220947265625,-0.1060942301094532,0.013578516562655567,-0.07611307947412133
1650870617600231200,11.122231201171875,-0.058659109717607495,0.025490431070362682,-0.039636785532673816
1650870617610241300,11.1322412109375,-0.08469605277180671,0.03121543938735267,-0.01746799599857768
1650870617620250000,11.14225,-0.06943301718831062,0.03224775299360044,0.04265249835834838
1650870617630260200,11.15226025390625,-0.07975801184773444,0.013664183268824126,0.0603740147435572
1650870617640270300,11.162270263671875,-0.0855938783943653,0.004313808934738335,0.10082157780299894
1650870617650280200,11.1722802734375,-0.09741524909138678,-0.003764557575366052,0.12301112471404485
1650870617660320300,11.1823203125,-0.08260112631916999,-0.03916082945084199,0.07908201228231192
1650870617670330400,11.192330322265626,-0.07182721884846686,-0.045403349702758715,0.031974735605344175
1650870617680339500,11.20233935546875,-0.06748772833943367,-0.02892998163156444,-0.0037914119037843193
1650870617690349300,11.212349365234376,-0.08634206641316414,-0.035885826368164266,-0.04765211957681458
1650870617700359400,11.222359375,-0.09202829535603523,-0.016828268756356554,-0.0890015770791564
1650870617710369300,11.232369384765626,-0.09142974494099616,-0.009093173571591614,-0.058833521003019994
1650870617720379400,11.24237939453125,-0.08349895194172859,0.02231397700831294,-0.06507873096894473
1650870617730388200,11.25238818359375,-0.08723989203572273,0.026291762632061726,-0.025240319633658508
1650870617740398000,11.262398193359376,-0.07766308539509773,0.010485907142446375,0.01107606418847572
1650870617750408200,11.272408203125,-0.07302431967854499,0.034216867959348016,0.05803895939211361
1650870617760418300,11.282418212890626,-0.06853519156575202,0.005811591192721971,0.08920984953497536
1650870617770427100,11.29242724609375,-0.0812543878853321,0.02120580113728065,0.08418386546596884
1650870617780437200,11.302437255859376,-0.08020692465901375,-0.011202050346945179,0.058621864713449025
1650870617790447400,11.312447265625,-0.0812543878853321,-0.028317667552654163,0.040621933245658874
1650870617800457200,11.322457275390626,-0.0686842446476221,-0.032077054335502904,-0.01199487551684724
1650870617810466300,11.33246630859375,-0.08484510585367679,-0.035244690336857454,-0.024852256464411037
1650870617820476400,11.342476318359376,-0.09457155009806155,-0.04573623491893522,-0.04844834798842203
1650870617830486300,11.352486328125,-0.0948708253055811,-0.02753119106679223,-0.05965395684069953
1650870617840496400,11.362496337890626,-0.07736322566568851,-0.006636265384923899,-0.0442249855391914
1650870617850506200,11.37250634765625,-0.08529401866495609,-0.015365123701503034,-0.0271026086574886
1650870617860515300,11.382515380859376,-0.08843640834391117,0.02269818598635029,0.008014761509516393
1650870617870525400,11.392525390625,-0.06449439174234867,0.030262755472131538,0.07198746917778626
1650870617880535300,11.402535400390626,-0.07466974879801273,0.029388719433825462,0.06977586210949811
1650870617890545400,11.41254541015625,-0.08185235377848148,0.008204389201191951,0.09253093851539305
1650870617900554200,11.42255419921875,-0.07721358806192874,-0.00474268189252034,0.05580810420066118
1650870617910564000,11.432564208984376,-0.08634148189127444,-0.0035862196043293807,0.015657737414439907
1650870617920604200,11.442604248046875,-0.08783785792887211,-0.01931119444615906,-0.002597678353615629
1650870617930614300,11.4526142578125,-0.08858604594767093,-0.05712472605744842,-0.045171335611748506
1650870617940624100,11.4626240234375,-0.08110416575968266,-0.05746173489289358,-0.04483838189691305
1650870617950634200,11.47263427734375,-0.08484510585367679,-0.04778181950424332,-0.07072401598007418
1650870617960643300,11.482643310546875,-0.07496902400553226,-0.03423501325410325,-0.05206878980817273
1650870617970653200,11.492653076171875,-0.08858604594767093,-0.02849380043769488,-0.014336640311934752
1650870617980663300,11.502663330078125,-0.08589256907999515,0.00006307185269251931,0.026981197067792527
1650870617990673400,11.51267333984375,-0.08469546824991703,0.028366438597824888,0.04176819893764332
1650870618000683300,11.522683349609375,-0.08948387157022952,0.03057549066613428,0.0414905875726603
1650870618010692400,11.5326923828125,-0.07601648723185062,0.02623048373176716,0.05511576085521373
1650870618020702500,11.542702392578125,-0.06539221736490726,0.0046860911546085845,0.05043541188610252
1650870618030712300,11.55271240234375,-0.08948387157022952,0.02287000117258867,0.024958052643155676
1650870618040722400,11.562722412109375,-0.06643968059122562,-0.006329590609771549,0.0007577741207074722
1650870618050731300,11.572731201171875,-0.07347264796793461,-0.030749436160665933,-0.002963349311253114
1650870618060741000,11.5827412109375,-0.05581541072428226,-0.04544480965773109,-0.05780326463982928
1650870618070751200,11.592751220703125,-0.09636720134317875,-0.04198820293045137,-0.044854173121089115
1650870618080770600,11.6027705078125,-0.07930851451456546,-0.050253643844719045,-0.04458453956658486
1650870618090779600,11.612779541015625,-0.08319909221231937,-0.025757265313004606,-0.023646686916798353
1650870618100789500,11.62278955078125,-0.05820961238443851,-0.003191929050750332,0.0023192158927951823
1650870618110799600,11.632799560546875,-0.0782610512882471,0.011283496394078246,0.04543462619043421
1650870618120809500,11.6428095703125,-0.07736322566568851,0.018882449923362583,0.05647202973579987
1650870618130818600,11.652818603515625,-0.07721358806192874,0.03415818515822757,0.08245959895662963
1650870618140828700,11.66282861328125,-0.06135200206339359,0.028270373795228076,0.05796797194855753
1650870618150838500,11.672838623046875,-0.06419511653482914,0.005009456484246766,0.039939860132476315
1650870618160848600,11.6828486328125,-0.08215162898600101,0.020214627825596833,-0.008873846003040671
1650870618170858500,11.6928583984375,-0.09142916041910648,-0.008376679882287862,-0.05031661694517824
1650870618180867300,11.702867431640625,-0.07990706492960453,-0.028550503627571742,-0.04959477807718794
1650870618190908400,11.712908447265624,-0.06629004298746585,-0.06023673429787159,-0.05077428845164832
1650870618200917500,11.72291748046875,-0.06629004298746585,-0.0486121465482749,-0.03209482745421119
1650870618210927400,11.73292724609375,-0.08080547507405281,-0.02831799177963985,-0.011559087048622314
1650870618220937500,11.7429375,-0.07392214530110358,-0.029371448638616127,0.011850795437616761
1650870618230947600,11.752947509765624,-0.10549567969441413,-0.004355608814305742,0.0430561563889496
1650870618240956700,11.762956787109376,-0.08095511267781257,0.007966856401559197,0.07266299381917342
1650870618250966500,11.772966552734376,-0.08080547507405281,0.024333755865506828,0.06659897193931974
1650870618260976600,11.7829765625,-0.07377250769734382,0.03459890096331946,0.06919123518853448
1650870618270986500,11.792986572265624,-0.09621814826130866,0.016246299583360085,0.039418416374525984
1650870618280995600,11.80299560546875,-0.07137830603718757,0.019691944241919553,-0.012820186175755224
1650870618291005700,11.813005615234376,-0.09367430899739265,0.003183994051933405,-0.020657953429594634
1650870618301015600,11.823015625,-0.08230185111165046,-0.013332630351564147,-0.060965441298065706
1650870618311025700,11.833025634765624,-0.08200257590413093,-0.030070208025118336,-0.034276683271629735
1650870618321035500,11.843035400390624,-0.0956195978462696,-0.02555049069452798,-0.025386607652995732
1650870618331044400,11.85304443359375,-0.07272504447102546,-0.04064726861631497,-0.03623836156630423
1650870618341054500,11.863054443359376,-0.08334931433796883,-0.03695159243615344,0.00022057081921084316
1650870618351064300,11.873064208984376,-0.07048048041462898,-0.02610273601611843,0.03571823983247159
1650870618361074400,11.883074462890624,-0.06808627875447273,-0.002984747721486201,0.0717525964094093
1650870618371083500,11.89308349609375,-0.08529460318684577,0.0036722159602941245,0.06832390973551664
1650870618381093400,11.90309326171875,-0.07272504447102546,0.0071124457998637805,0.06601975184583571
1650870618391103500,11.913103515625,-0.07811199820637703,0.007496064547789865,0.047412200740561815
1650870618401113600,11.923113525390624,-0.09023264411091804,0.019063819530879846,0.0009479560806983499
1650870618411122700,11.933122802734376,-0.07826163581013679,0.022389939737797248,-0.034122383192484264
1650870618421132500,11.943132568359376,-0.08544482531249523,0.02348808055529371,-0.037782899011007974
1650870618431142700,11.953142578125,-0.0894850406140089,-0.0014389113709621596,-0.04332862578793428
1650870618441152500,11.963152587890624,-0.07661620669066906,-0.0459901777139632,-0.04793068992302287
1650870618451192600,11.973192626953125,-0.07841185793578624,-0.033292003632814156,-0.029959975416562517
1650870618461202700,11.98320263671875,-0.0851455501049757,-0.04067367713262793,0.0014828766643855487
1650870618471212500,11.993212646484375,-0.07586801867187022,-0.02984177413068246,0.05206362500928808
1650870618481221400,12.003221435546875,-0.07691548189818859,-0.031416286588541696,0.06277239025533199
1650870618491231500,12.0132314453125,-0.09172960467040538,-0.007788108009390999,0.04649637823700904
1650870618501241300,12.023241455078125,-0.08125497240722179,-0.004332007030543173,0.05754621200568508
1650870618511251500,12.03325146484375,-0.09547054476439952,0.005739596248057205,0.01192667939364328
1650870618521260500,12.043260498046875,-0.08065642199218273,0.033512523648852946,0.034581662134150974
1650870618531270400,12.0532705078125,-0.09083177904784678,0.02517562493357109,-0.019225514040258712
1650870618541280500,12.063280517578125,-0.06359773516356945,0.020976280397456137,-0.05761289773345925
1650870618551290600,12.07329052734375,-0.07422200503051281,0.004529137037839973,-0.08280319736306554
1650870618561299500,12.083299560546875,-0.07392272982299328,-0.017155333869811145,-0.07497864121724851
1650870618571309600,12.0933095703125,-0.07841185793578624,-0.03782591160224983,-0.04477161397074814
1650870618581319700,12.103319580078125,-0.08260171084105968,-0.020141688170260748,-0.004382206843575113
1650870618591329500,12.11332958984375,-0.09487199434936046,-0.014560209659941028,0.01454978873062646
1650870618601338600,12.123338623046875,-0.08080605959594249,-0.035000661581067835,0.05041360647967085
1650870618611348700,12.1333486328125,-0.08589373812377453,-0.01589535697904066,0.052827225226350125
1650870618621358300,12.1433583984375,-0.06674012484252452,-0.020721910627454054,0.06813383052351418
1650870618631368400,12.153368408203125,-0.08155424761474132,-0.003663429009406536,0.059584321104013356
1650870618641378300,12.16337841796875,-0.07422200503051281,0.014946661969058913,0.024497673156368544
1650870618651387400,12.173387451171875,-0.06838613848388195,0.014658440161804901,-0.01555038745778147
1650870618661397500,12.1833974609375,-0.07751403231322765,0.011401585798815358,-0.0396202819224447
1650870618671407400,12.193407470703125,-0.06674012484252452,0.025211438315757548,-0.047373667961615136
1650870618681417500,12.20341748046875,-0.06359773516356945,-0.0024164434601276295,-0.056997222653683274
1650870618691426600,12.213426513671875,-0.07601765627563,0.005213920414628228,-0.05278837278699502
1650870618701436400,12.2234365234375,-0.07347381701171397,-0.018988179886736907,0.005997233404091093
1650870618711476500,12.2334765625,-0.08589373812377453,-0.019690754648542495,0.019853920737444422
1650870618721486600,12.243486572265626,-0.06688976244628429,-0.04493821184246335,0.033867218838038386
1650870618731496400,12.253496337890626,-0.08095569719970226,-0.025758989195921456,0.038730023118411186
