time,seconds_elapsed,z,y,x
1650870606648356600,0.170356689453125,0.009861283004283905,0.012478403747081757,-0.0014382004737854004
1650870606658365700,0.18036572265625,0.010762764140963554,0.005842607468366623,-0.010176297277212143
1650870606668375800,0.190375732421875,0.007267695851624012,0.005281217396259308,-0.02171475440263748
1650870606678385700,0.2003857421875,0.0018489616923034191,0.0021759718656539917,-0.017143703997135162
1650870606688395800,0.210395751953125,0.009629023261368275,0.007310301065444946,-0.006311966106295586
1650870606698404600,0.220404541015625,0.020093383267521858,0.013020120561122894,0.0047750407829880714
1650870606708414500,0.23041455078125,0.022266745567321777,0.008882101625204086,0.0021183164790272713
1650870606718424600,0.240424560546875,0.014206955209374428,0.016199667006731033,-0.012683798559010029
1650870606728434700,0.2504345703125,0.004076412878930569,0.013264592736959457,-0.02466363087296486
1650870606738443500,0.260443603515625,0.0033046286553144455,0.004814915359020233,-0.031738851219415665
1650870606748453600,0.27045361328125,0.002258933149278164,-0.003943141549825668,-0.027268292382359505
1650870606758463700,0.280463623046875,0.004147646948695183,-0.010502239689230919,-0.033898502588272095
1650870606768473600,0.2904736328125,0.011072643101215363,-0.008531508967280388,-0.03961923345923424
1650870606778483700,0.300483642578125,0.014571502804756165,-0.00469256192445755,-0.030577801167964935
1650870606788492800,0.310492919921875,0.011847734451293945,0.0014423318207263947,-0.02615993283689022
1650870606798502700,0.320502685546875,0.007624492514878511,0.004185918718576431,-0.019868748262524605
1650870606808512800,0.3305126953125,0.0016560351941734552,0.0017144829034805298,-0.005328952334821224
1650870606818522600,0.340522705078125,-0.002236707368865609,0.005695372819900513,-0.008556968532502651
1650870606828531700,0.35053173828125,-0.02202381007373333,0.003927301615476608,-0.0022233473137021065
1650870606838541800,0.360541748046875,-0.032595496624708176,0.006597921252250671,0.019013764336705208
1650870606848581600,0.37058154296875,-0.01572137326002121,0.00026786699891090393,0.01409272663295269
1650870606858591500,0.380591552734375,-0.002211956540122628,-0.008085405454039574,-0.005760871805250645
1650870606868601600,0.3906015625,0.002920551225543022,-0.01971488632261753,-0.03132513165473938
1650870606878611500,0.400611572265625,-0.004685702733695507,-0.02668437920510769,-0.056275226175785065
1650870606888620500,0.41062060546875,-0.013062248937785625,-0.025194881483912468,-0.06729582697153091
1650870606898630700,0.420630615234375,-0.014641236513853073,-0.03193241357803345,-0.06774803251028061
1650870606908640500,0.430640625,-0.01927119866013527,-0.038739968091249466,-0.07912789285182953
1650870606918650600,0.440650634765625,-0.02432987466454506,-0.03629731759428978,-0.09580061584711075
1650870606928660700,0.45066064453125,-0.030490629374980927,-0.021557800471782684,-0.09839022159576416
1650870606938669600,0.460669677734375,-0.048519428819417953,-0.01388736255466938,-0.09439575672149658
1650870606948679700,0.4706796875,-0.0766524225473404,-0.013370431959629059,-0.09359769523143768
1650870606958689800,0.480689697265625,-0.09117597341537476,-0.00537668913602829,-0.09422007948160172
1650870606968699600,0.49069970703125,-0.08925282210111618,-0.010666795074939728,-0.09481218457221985
1650870606978708700,0.500708740234375,-0.0928502231836319,-0.020829150453209877,-0.1182519942522049
1650870606988718800,0.51071875,-0.09053666889667511,-0.03082318976521492,-0.15093381702899933
1650870606998728700,0.520728759765625,-0.08628600090742111,-0.04146731272339821,-0.19284291565418243
1650870607008738600,0.530738525390625,-0.11319077014923096,-0.04542237147688866,-0.23257258534431458
1650870607018747600,0.54074755859375,-0.13942690193653107,-0.04786821827292442,-0.27246326208114624
1650870607028757500,0.550757568359375,-0.16796617209911346,-0.023082710802555084,-0.32409924268722534
1650870607038767600,0.560767578125,-0.24206863343715668,0.04263158515095711,-0.3467795252799988
1650870607048777500,0.570777587890625,-0.3667753040790558,0.22746242582798004,-0.3913511335849762
1650870607058786600,0.58078662109375,-0.47017544507980347,0.3031933903694153,-0.4161326289176941
1650870607068787000,0.590786865234375,-0.5246517062187195,0.3909754753112793,-0.41574859619140625
1650870607078796800,0.600796875,-0.5906506776809692,0.2128041386604309,-0.3689797520637512
1650870607088807000,0.610806884765625,-0.46387726068496704,-0.012912632897496223,-0.3840253949165344
1650870607098816800,0.620816650390625,-0.3631138801574707,-0.18237435817718506,-0.455258846282959
1650870607108825900,0.630825927734375,-0.3441102206707001,-0.13056229054927826,-0.49664947390556335
1650870607118836000,0.6408359375,-0.38786038756370544,0.06249718368053436,-0.4955299198627472
1650870607128845800,0.650845703125,-0.4646536409854889,0.304583340883255,-0.5768916606903076
1650870607138856000,0.66085595703125,-0.49103012681007385,0.44848376512527466,-0.7358986139297485
1650870607148865000,0.670864990234375,-0.4203592836856842,0.46527206897735596,-0.9630059599876404
1650870607158905900,0.68090576171875,-0.3029852509498596,0.3668147325515747,-1.2319849729537964
1650870607168915000,0.6909150390625,-0.18817967176437378,0.20065613090991974,-1.5165289640426636
1650870607178925000,0.700925048828125,-0.16342851519584656,0.12753531336784363,-1.7333028316497803
1650870607188935200,0.71093505859375,-0.20072047412395477,0.20396965742111206,-1.8514279127120972
1650870607198945000,0.720945068359375,-0.08764716982841492,0.36342960596084595,-1.7751421928405762
1650870607208953900,0.730953857421875,-0.17437876760959625,0.43534669280052185,-1.5784355401992798
1650870607218964000,0.7409638671875,-0.47261685132980347,0.5495291352272034,-1.346118688583374
1650870607228973800,0.750973876953125,-0.5962319374084473,0.6804664134979248,-1.0428683757781982
1650870607238984000,0.76098388671875,-0.4634472727775574,0.6687484979629517,-0.6656385064125061
1650870607248993800,0.770993896484375,-0.16643314063549042,0.5497081279754639,-0.3027128577232361
1650870607259003000,0.7810029296875,0.018283987417817116,0.43720394372940063,-0.038989581167697906
1650870607269013000,0.791012939453125,-0.004502609372138977,0.40095409750938416,0.12012532353401184
1650870607279022800,0.80102294921875,-0.0515606626868248,0.4234980046749115,0.27460572123527527
1650870607289033000,0.811032958984375,-0.10335411131381989,0.5462124347686768,0.4835405647754669
1650870607299042000,0.8210419921875,-0.20929013192653656,0.6323771476745605,0.7008177638053894
1650870607309052000,0.831052001953125,-0.3194160759449005,0.6284261345863342,0.7965224385261536
1650870607319062000,0.84106201171875,-0.351690411567688,0.5431376099586487,0.8234882950782776
1650870607329071900,0.85107177734375,-0.3119015395641327,0.3678174316883087,0.8184829354286194
1650870607339080700,0.861080810546875,-0.22147497534751892,0.21885113418102264,0.7665749788284302
1650870607349090800,0.8710908203125,-0.11713506281375885,0.14965340495109558,0.6151224374771118
1650870607359101000,0.881100830078125,-0.013146616518497467,0.24315673112869263,0.40402406454086304
1650870607369110800,0.89111083984375,0.13685791194438934,0.39178240299224854,0.1686961054801941
1650870607379119900,0.901119873046875,0.29120221734046936,0.5145182013511658,-0.05178540572524071
1650870607389130000,0.9111298828125,0.4144896864891052,0.5412286520004272,-0.23830242455005646
1650870607399139800,0.921139892578125,0.49810466170310974,0.5685591101646423,-0.38906291127204895
1650870607409150000,0.93114990234375,0.49510514736175537,0.5192080140113831,-0.4760899543762207
1650870607419159800,0.941159912109375,0.35340553522109985,0.47261279821395874,-0.5664656758308411
1650870607429169000,0.9511689453125,0.12129975110292435,0.41180700063705444,-0.7018425464630127
1650870607439179000,0.961178955078125,-0.1935543268918991,0.35881009697914124,-0.8942809700965881
1650870607449188900,0.97118896484375,-0.5172601342201233,0.3902851939201355,-1.1722718477249146
1650870607459229000,0.98122900390625,-0.727473795413971,0.44616231322288513,-1.4905507564544678
1650870607469239000,0.991239013671875,-0.7783067226409912,0.3972078263759613,-1.7944458723068237
1650870607479249000,1.001248779296875,-0.6646829843521118,0.21906819939613342,-2.0068352222442627
1650870607489257700,1.0112578125,-0.48557808995246887,-0.15785008668899536,-2.038109064102173
1650870607499267800,1.021267822265625,-0.40410345792770386,-0.5109111666679382,-1.9184659719467163
1650870607509277700,1.031277587890625,-0.4273665249347687,-0.5549926161766052,-1.7161182165145874
1650870607519287800,1.041287841796875,-0.5340766906738281,-0.5087165236473083,-1.565605878829956
1650870607529297000,1.051296875,-0.6195782423019409,-0.2323480099439621,-1.490912914276123
1650870607539306800,1.061306640625,-0.6158567070960999,0.12168756127357483,-1.3965015411376953
1650870607549316900,1.07131689453125,-0.6518186330795288,0.34683603048324585,-1.1884608268737793
1650870607559327000,1.081326904296875,-0.7968106865882874,0.44544142484664917,-0.855169951915741
1650870607569336800,1.0913369140625,-0.8873792886734009,0.5166170597076416,-0.511570930480957
1650870607579346000,1.101345947265625,-0.9051721692085266,0.6512838006019592,-0.3280189633369446
1650870607589356000,1.11135595703125,-0.8552247881889343,0.6545983552932739,-0.2878238558769226
1650870607599366000,1.121365966796875,-0.8045480251312256,0.5535857081413269,-0.3391725420951843
1650870607609376000,1.1313759765625,-0.7616111636161804,0.38300228118896484,-0.4669497609138489
1650870607619385000,1.141385009765625,-0.6716466546058655,0.1411731243133545,-0.6627179384231567
1650870607629395000,1.15139501953125,-0.539548933506012,-0.003547556698322296,-0.8927898406982422
1650870607639405000,1.161405029296875,-0.3849252760410309,0.11244750022888184,-1.0643101930618286
1650870607649415000,1.171414794921875,-0.2825234830379486,0.35189199447631836,-1.1145116090774536
1650870607659423700,1.181423828125,-0.20385636389255524,0.623881995677948,-0.9907177686691284
1650870607669433900,1.191433837890625,-0.13977840542793274,1.0016891956329346,-0.7237123847007751
1650870607679443700,1.201443603515625,-0.1285361349582672,1.3941775560379028,-0.37420421838760376
1650870607689453800,1.211453857421875,0.02579599805176258,1.5535521507263184,-0.31600701808929443
1650870607699463000,1.221462890625,0.06262858211994171,2.3381855487823486,-0.04346631467342377
1650870607709472800,1.23147265625,0.2428644597530365,2.265888214111328,0.5439260005950928
1650870607719483000,1.24148291015625,0.3381888270378113,0.7671358585357666,1.1069039106369019
1650870607729493000,1.251492919921875,0.14014536142349243,-0.4607856869697571,1.3520209789276123
1650870607739502800,1.2615029296875,-0.21906793117523193,-0.13967904448509216,0.9254941344261169
1650870607749512000,1.271511962890625,-0.507500410079956,0.801042377948761,0.1745171993970871
1650870607759553000,1.281552978515625,-0.4942602813243866,1.557961344718933,-0.3511393964290619
1650870607769562000,1.29156201171875,-0.4102392792701721,2.302361249923706,-0.5047059059143066
1650870607779572000,1.301572021484375,-0.23785923421382904,2.4959161281585693,-0.4801174998283386
1650870607789582000,1.31158203125,0.05104542523622513,2.00382137298584,-0.7665102481842041
1650870607799592000,1.321592041015625,0.09131881594657898,1.67067551612854,-1.1554486751556396
1650870607809600800,1.331600830078125,-0.1984003335237503,1.445708990097046,-1.4972915649414062
1650870607819611000,1.34161083984375,-0.8293993473052979,1.4104697704315186,-1.7218660116195679
1650870607829620700,1.351620849609375,-1.4163585901260376,1.2386780977249146,-1.798518180847168
1650870607839630800,1.361630859375,-1.6291732788085938,0.6612738370895386,-1.5894126892089844
1650870607849640000,1.371639892578125,-0.8739207983016968,-0.6059377789497375,-1.1549851894378662
1650870607859649800,1.38164990234375,0.12271741032600403,0.07560291886329651,-0.26549026370048523
1650870607869660000,1.391659912109375,0.3520955741405487,0.962279200553894,0.4778384566307068
1650870607879670000,1.401669921875,-0.07193295657634735,1.2958632707595825,0.7913439273834229
1650870607889680000,1.411679931640625,-0.488748699426651,1.0633472204208374,0.7294966578483582
1650870607899689000,1.42168896484375,-0.5072110891342163,0.5550432801246643,0.31072843074798584
1650870607909699000,1.431698974609375,-0.345903217792511,0.01598166674375534,-0.18188175559043884
1650870607919709000,1.441708984375,-0.20205414295196533,-0.3515830338001251,-0.5202531814575195
1650870607929719000,1.451718994140625,0.03276107460260391,-0.4226768910884857,-0.6897122263908386
1650870607939728100,1.46172802734375,0.377232164144516,-0.2772001326084137,-0.8014481067657471
1650870607949738000,1.471738037109375,0.6462677717208862,-0.048389315605163574,-0.768543541431427
1650870607959748000,1.481748046875,0.8080366849899292,0.01975937932729721,-0.6608319878578186
1650870607969758000,1.491758056640625,0.8505983352661133,0.06801319867372513,-0.5866677761077881
1650870607979766800,1.501766845703125,0.7030834555625916,0.0880659967660904,-0.5872219800949097
1650870607989777000,1.51177685546875,0.5234588980674744,0.04583917185664177,-0.651864767074585
1650870607999786800,1.521786865234375,0.3870565891265869,-0.05668880045413971,-0.6999180316925049
1650870608009796900,1.531796875,0.3691596984863281,-0.01268165372312069,-0.7127033472061157
1650870608019807000,1.541806884765625,0.3698398470878601,-0.010496530681848526,-0.803906261920929
1650870608029815800,1.55181591796875,0.13738925755023956,-0.1316503882408142,-0.9940101504325867
1650870608039826000,1.561825927734375,-0.10472750663757324,-0.1746058464050293,-1.2513055801391602
1650870608049866000,1.571865966796875,-0.26123854517936707,0.12810103595256805,-1.3490386009216309
1650870608059875800,1.581875732421875,-0.40964531898498535,1.3257787227630615,-1.3309022188186646
1650870608069889500,1.5918896484375,-0.6026411056518555,2.1553924083709717,-1.2707738876342773
1650870608079899600,1.601899658203125,3.209181785583496,-6.957712650299072,3.4150447845458984
1650870608089908500,1.611908447265625,2.133674383163452,-3.57846999168396,2.0412192344665527
1650870608099918600,1.621918701171875,1.0896880626678467,-0.4580564796924591,-0.06644953042268753
1650870608109928700,1.6319287109375,0.19530269503593445,-5.476303577423096,-1.8767836093902588
1650870608119938600,1.6419384765625,0.10589026659727097,-4.35105037689209,-1.8861342668533325
1650870608129947600,1.65194775390625,0.6050499081611633,-4.4293212890625,-1.0054051876068115
1650870608139957800,1.661957763671875,0.800537645816803,-3.836008310317993,-0.6038375496864319
1650870608149967600,1.671967529296875,1.0180147886276245,-3.21268367767334,-0.16872410476207733
1650870608159977500,1.6819775390625,1.2112785577774048,-1.3392695188522339,0.3267524838447571
1650870608169987300,1.6919873046875,1.316831111907959,1.14264714717865,0.9036684632301331
1650870608179996400,1.701996337890625,1.0953407287597656,0.27080971002578735,0.9410935640335083
1650870608190006500,1.712006591796875,0.1718721240758896,-0.6641832590103149,-0.5141356587409973
1650870608200016400,1.722016357421875,0.2850996255874634,-1.5637812614440918,-0.14613978564739227
1650870608210026500,1.732026611328125,0.26508837938308716,-0.4457736611366272,0.1599685102701187
1650870608220035600,1.74203564453125,0.015056425705552101,0.6050398945808411,-0.022721674293279648
1650870608230045400,1.75204541015625,-0.01937614008784294,0.21732546389102936,-0.00797920860350132
1650870608240055600,1.7620556640625,0.004915083292871714,0.030997931957244873,0.008939321152865887
1650870608250065700,1.772065673828125,0.007250127382576466,0.2866462469100952,0.01583907939493656
1650870608260074500,1.782074462890625,0.00035600224509835243,0.4669768810272217,-0.007450529374182224
1650870608270084600,1.792084716796875,-0.006374935619533062,0.4539491832256317,-0.00981084257364273
1650870608280094700,1.8020947265625,-0.00442496920004487,0.23973143100738525,0.004437601193785667
1650870608290104600,1.8121044921875,-0.006717110052704811,-0.37697306275367737,0.0037017231807112694
1650870608300113400,1.822113525390625,-0.00812059547752142,-1.0299524068832397,-0.006790066137909889
1650870608310123500,1.83212353515625,0.00606610206887126,-1.6492871046066284,-0.001956469379365444
1650870608320133400,1.84213330078125,0.008075190708041191,-2.274214029312134,0.008649302646517754
1650870608330143500,1.8521435546875,0.006142559461295605,-2.625614643096924,0.012937520630657673
1650870608340153300,1.8621533203125,0.011016410775482655,-1.7933272123336792,0.017293918877840042
1650870608350193400,1.872193359375,-0.003253807546570897,-0.5263899564743042,-0.024748917669057846
1650870608360203500,1.88220361328125,-0.0025203728582710028,-0.3001093864440918,-0.0062841568142175674
1650870608370212600,1.892212646484375,-0.006013454869389534,-0.25593528151512146,0.0043533965945243835
1650870608380222500,1.902222412109375,-0.060365110635757446,0.06707713007926941,0.007962511852383614
1650870608390232600,1.912232666015625,-0.12446785718202591,-0.026342321187257767,0.03451037034392357
1650870608400242700,1.92224267578125,-0.21867983043193817,-0.16712579131126404,0.05860451981425285
1650870608410251500,1.93225146484375,-0.25630033016204834,-0.011301849037408829,0.07038621604442596
1650870608420261600,1.94226171875,-0.19832541048526764,-0.009393161162734032,0.05932850018143654
1650870608430271700,1.952271728515625,-0.14528676867485046,-0.12422598898410797,0.03403068706393242
1650870608440281600,1.962281494140625,-0.09603665769100189,-0.22016316652297974,0.0223628468811512
1650870608450290400,1.97229052734375,-0.1597614288330078,-0.44803282618522644,0.04741507023572922
1650870608460300500,1.982300537109375,-0.31141141057014465,-0.5205275416374207,0.08690362423658371
1650870608470310400,1.992310302734375,-0.5296235680580139,-0.36206358671188354,0.13579033315181732
1650870608480320500,2.002320556640625,-0.7562153935432434,-0.18115559220314026,0.19199422001838684
1650870608490330400,2.012330322265625,-0.9370046854019165,-0.14348092675209045,0.2315099984407425
1650870608500339500,2.02233935546875,-1.0547996759414673,-0.27291882038116455,0.2608950436115265
1650870608510349600,2.032349609375,-1.142301321029663,-0.42447343468666077,0.27846628427505493
1650870608520359400,2.042359375,-1.201773762702942,-0.4322405457496643,0.29406386613845825
1650870608530369500,2.05236962890625,-1.2792643308639526,-0.2719872295856476,0.2989991009235382
1650870608540378600,2.062378662109375,-1.4539967775344849,-0.09561245888471603,0.3314436078071594
1650870608550388500,2.072388427734375,-1.8312784433364868,-0.05073179677128792,0.4235798716545105
1650870608560398600,2.082398681640625,-2.303431272506714,-0.08455154299736023,0.5341665744781494
1650870608570408700,2.09240869140625,-2.614548921585083,-0.18040058016777039,0.5976521968841553
1650870608580417500,2.10241748046875,-2.718925952911377,-0.48381319642066956,0.6104151606559753
1650870608590427600,2.112427734375,-2.7016141414642334,-1.1927448511123657,0.5782848000526428
1650870608600437800,2.122437744140625,-2.524400472640991,-2.3342363834381104,0.48624250292778015
1650870608610447600,2.132447509765625,-2.142714738845825,-3.760664939880371,0.36890149116516113
1650870608620456400,2.14245654296875,-1.659713864326477,-5.131247043609619,0.20851527154445648
1650870608630466600,2.152466552734375,-1.1685044765472412,-6.4160637855529785,0.05170826241374016
1650870608640507400,2.16250732421875,-0.551443338394165,-3.2510242462158203,-0.9920079708099365
1650870608650516500,2.1725166015625,-0.10647916048765182,0.6276000738143921,-0.10922793298959732
1650870608660526600,2.182526611328125,-0.010577394627034664,0.250752717256546,0.6013345718383789
1650870608670536400,2.192536376953125,0.11096403747797012,-0.6633645296096802,0.2049935907125473
1650870608680546600,2.202546630859375,0.0020106546580791473,-0.05205908417701721,-0.1198127269744873
1650870608690555600,2.2125556640625,0.002202663104981184,0.08626334369182587,0.029652629047632217
1650870608700565500,2.2225654296875,0.0008838656358420849,-0.03877020627260208,-0.02467452734708786
1650870608710575600,2.23257568359375,0.003213354852050543,0.018947962671518326,0.0400722473859787
1650870608720585500,2.24258544921875,0.0017126635648310184,-0.0016654357314109802,-0.007273698225617409
1650870608730594600,2.252594482421875,-0.000527337659150362,0.0037405304610729218,-0.02181025594472885
1650870608740604700,2.262604736328125,0.001644736621528864,-0.0018217489123344421,0.016516627743840218
1650870608750614500,2.272614501953125,0.0009927472565323114,0.0072950273752212524,0.014993303455412388
1650870608760624600,2.282624755859375,-0.0007055504247546196,0.0006056986749172211,-0.016541453078389168
1650870608770633500,2.292633544921875,0.0011310933623462915,-0.0032494738698005676,-0.005596218630671501
1650870608780643600,2.3026435546875,0.002557748695835471,0.003223605453968048,0.024296965450048447
1650870608790653400,2.3126533203125,0.001134637976065278,0.0009252987802028656,-0.0016572289168834686
1650870608800663600,2.32266357421875,-0.0016608820296823978,-0.0019045770168304443,-0.016694501042366028
1650870608810673400,2.33267333984375,0.0005351030267775059,-0.0014715343713760376,0.008431445807218552
1650870608820682500,2.3426826171875,0.001175859710201621,0.0026315972208976746,0.014601724222302437
1650870608830692600,2.352692626953125,-0.001074536587111652,0.0011862888932228088,-0.010376326739788055
1650870608840702500,2.362702392578125,0.00020671007223427296,-0.00295812264084816,-0.00577038899064064
1650870608850712600,2.372712646484375,0.0014688880182802677,0.004377562552690506,0.015441596508026123
1650870608860721700,2.3827216796875,-0.00023660040460526943,0.0012563355267047882,0.0009300326928496361
1650870608870731500,2.3927314453125,0.00036186957731842995,-0.0009362548589706421,-0.01316510047763586
1650870608880741600,2.40274169921875,0.0009333838243037462,-0.0015386641025543213,0.001993877813220024
1650870608890751500,2.41275146484375,0.0008106594905257225,0.002048637717962265,0.009674697183072567
1650870608900760600,2.422760498046875,0.0011699199676513672,0.00013782083988189697,-0.0051676323637366295
1650870608910770700,2.432770751953125,0.00038996082730591297,-0.0017535649240016937,-0.0068939803168177605
1650870608920780500,2.442780517578125,0.0009755899664014578,0.0006587281823158264,0.008958219550549984
1650870608930820400,2.4528203125,-0.000651415903121233,0.0008315742015838623,0.005773166194558144
1650870608940830500,2.46283056640625,0.017583249136805534,0.019443340599536896,0.004075135104358196
1650870608950840600,2.472840576171875,0.0017761110793799162,-0.007580306380987167,-0.004244131967425346
1650870608960850400,2.482850341796875,0.003188918111845851,-0.007727045565843582,0.01393407303839922
1650870608970859500,2.492859619140625,0.003646926023066044,-0.005342166870832443,0.0029853694140911102
1650870608980869600,2.50286962890625,0.006703435909003019,-0.0005785711109638214,0.0010740188881754875
1650870608990879500,2.51287939453125,0.0059080058708786964,-0.0034116581082344055,0.00718269357457757
1650870609000889600,2.5228896484375,0.003406231990084052,-0.0038886331021785736,0.006120624952018261
1650870609010898700,2.532898681640625,0.0008089565671980381,-0.004533108323812485,-0.0015648165717720985
1650870609020908500,2.542908447265625,0.004436181858181953,-0.000807344913482666,0.003273880109190941
1650870609030918700,2.552918701171875,0.009327487088739872,0.00016710907220840454,0.009746561758220196
1650870609040928500,2.562928466796875,0.018578244373202324,0.005857750773429871,0.009076510556042194
1650870609050937600,2.5729375,0.018200527876615524,0.0068532489240169525,-0.008071762509644032
1650870609060947700,2.58294775390625,0.0012564316857606173,0.00007550418376922607,-0.003855179063975811
1650870609070936000,2.59293603515625,-0.0018555136630311608,0.0010891035199165344,-0.0014194073155522346
1650870609080946000,2.60294580078125,-0.0012560361064970493,0.0052521564066410065,-0.008293557912111282
1650870609090956000,2.6129560546875,-0.0022508716210722923,0.007643934339284897,-0.00683507788926363
1650870609100964900,2.62296484375,-0.0006812044885009527,-0.0036880820989608765,-0.0022587021812796593
1650870609110974700,2.632974609375,-0.002197463531047106,-0.0030539780855178833,-0.00043696723878383636
1650870609120984800,2.64298486328125,-0.00036893715150654316,-0.0054572150111198425,-0.002954719588160515
1650870609130994700,2.65299462890625,-0.0003727045841515064,-0.0028214789927005768,-0.0008915262296795845
1650870609141003800,2.663003662109375,-0.0012299761874601245,-0.0016286484897136688,0.000881340354681015
1650870609151014000,2.673013916015625,-0.0005277420859783888,-0.0014760494232177734,0.0005082767456769943
1650870609161023700,2.683023681640625,0.00034018210135400295,-0.0016014836728572845,-0.0006999988108873367
1650870609171033900,2.693033935546875,0.00034028757363557816,-0.00012262538075447083,0.00254204124212265
1650870609181043000,2.70304296875,0.0006635952740907669,-0.0006499290466308594,0.0013832999393343925
1650870609191052800,2.713052734375,0.0023000913206487894,-0.0008025169372558594,-0.000915764831006527
1650870609201063000,2.72306298828125,0.002422330202534795,-0.001376960426568985,0.0006224764510989189
1650870609211103000,2.73310302734375,0.0025528832338750362,0.00013890117406845093,0.002109498716890812
1650870609221113000,2.743113037109375,0.00292093213647604,-0.001978311687707901,0.003882897086441517
1650870609231123000,2.753123046875,0.0009466253686696291,-0.001374315470457077,0.0018217023462057114
1650870609241133000,2.763133056640625,0.0034294906072318554,-0.00046298280358314514,0.003825731575489044
1650870609251142000,2.773141845703125,0.00286770798265934,-0.000018231570720672607,0.004499910399317741
1650870609261151700,2.78315185546875,0.006834486033767462,0.005527269095182419,0.005033873952925205
1650870609271161900,2.793161865234375,0.008635396137833595,0.005463879555463791,0.0068583181127905846
1650870609281171700,2.803171630859375,0.01715032197535038,0.005552031099796295,0.005903575103729963
1650870609291180800,2.813180908203125,0.03267810866236687,0.0004571452736854553,-0.00014282390475273132
1650870609301191000,2.82319091796875,0.016472773626446724,-0.0012739114463329315,-0.003388151526451111
1650870609311200800,2.83320068359375,0.003224443644285202,0.0001623108983039856,-0.0007818471640348434
1650870609321211000,2.8432109375,0.0036726538091897964,0.005702216178178787,-0.002096916548907757
1650870609331220000,2.853219970703125,0.008639230392873287,0.0195554718375206,-0.002561907283961773
1650870609341229800,2.863229736328125,0.021718813106417656,0.042956139892339706,-0.004018123261630535
1650870609351240000,2.873239990234375,0.043730370700359344,0.03823835030198097,0.00530906580388546
1650870609361250000,2.88325,0.0908651277422905,-0.05419731140136719,-0.007439219392836094
1650870609371259000,2.8932587890625,-0.01820014789700508,-0.02454247698187828,-0.008211224339902401
1650870609381269000,2.90326904296875,-0.015205956995487213,-0.021621521562337875,-0.002878510393202305
1650870609391279000,2.913279052734375,-0.0024158984888345003,-0.00025071948766708374,0.009635193273425102
1650870609401289000,2.9232890625,-0.0003016148693859577,-0.0002363361418247223,0.0070540569722652435
1650870609411299000,2.933299072265625,-0.0005172088276594877,-0.0006326176226139069,-0.00696069560945034
1650870609421308000,2.943307861328125,0.001050860621035099,-0.002112802118062973,-0.005296751856803894
1650870609431317800,2.95331787109375,-0.00008843420073390007,-0.0006232708692550659,0.003835270181298256
1650870609441327900,2.963327880859375,-0.00037632184103131294,-0.0012062378227710724,-0.0034434162080287933
1650870609451337700,2.973337646484375,0.00039449427276849747,-0.0019282400608062744,-0.006089129485189915
1650870609461346800,2.983346923828125,-0.0030806646682322025,-0.0007953308522701263,0.004914519377052784
1650870609471357000,2.99335693359375,-0.0026636363472789526,0.0003727227449417114,0.005117984488606453
1650870609481366800,3.00336669921875,-0.0033025287557393312,-0.001217719167470932,-0.001260286197066307
1650870609491377000,3.013376953125,-0.0014012980973348022,-0.0014012083411216736,0.0018414976075291634
1650870609501417000,3.0234169921875,0.0003393441438674927,-0.000048857182264328,0.005361663643270731
1650870609511426800,3.0334267578125,0.0011310218833386898,0.001398574560880661,0.002524418756365776
1650870609521436000,3.043435791015625,0.0010303542949259281,-0.00007095560431480408,-0.00163197610527277
1650870609531446000,3.053446044921875,0.001741812564432621,-0.00009038299322128296,0.0010987380519509315
1650870609541456000,3.063455810546875,0.001428091898560524,0.0008342675864696503,0.0014060670509934425
1650870609551466000,3.073466064453125,-0.0001745014451444149,-0.0011277012526988983,-0.0019749458879232407
1650870609561476000,3.08347607421875,0.00026998016983270645,-0.0008605867624282837,-0.0014854567125439644
1650870609571485000,3.09348486328125,0.001292084576562047,0.0013117715716362,0.002061649225652218
1650870609581494800,3.103494873046875,-0.003042209893465042,-0.002131696790456772,0.0009460514411330223
1650870609591505000,3.1135048828125,-0.000698877964168787,0.00021053850650787354,-0.00023243948817253113
1650870609601514800,3.1235146484375,-0.0021071573719382286,-0.0010320954024791718,0.0015718517825007439
1650870609611523800,3.13352392578125,-0.0016274165827780962,-0.0007396712899208069,0.0022583240643143654
1650870609621534000,3.143533935546875,-0.001130470773205161,-0.0011641792953014374,-0.00015316810458898544
1650870609631543800,3.153543701171875,0.0010744240134954453,-0.001005709171295166,-0.0011473717167973518
1650870609641554000,3.163553955078125,0.0026502166874706745,0.0001865886151790619,0.0004854127764701843
1650870609651563000,3.17356298828125,0.004814670421183109,-0.0003468357026576996,-0.0004427861422300339
1650870609661572900,3.18357275390625,0.0032215674873441458,-0.0002443045377731323,-0.002693689428269863
1650870609671583000,3.1935830078125,0.00039992574602365494,0.0005786046385765076,-0.00126543827354908
1650870609681592800,3.2035927734375,-0.0011319245677441359,-0.0002917163074016571,-0.00045876670628786087
1650870609691602000,3.213601806640625,-0.0019190910970792174,-0.00044564157724380493,-0.0011016977950930595
1650870609701612000,3.223612060546875,-0.0023803506046533585,0.000052634626626968384,-0.0021768156439065933
1650870609711622000,3.233621826171875,-0.0035730996169149876,-0.002640094608068466,0.00006894022226333618
1650870609721632000,3.243632080078125,-0.00176001968793571,-0.00004510954022407532,0.0005392543971538544
1650870609731641900,3.253641845703125,-0.001119545428082347,-0.0009867846965789795,0.0003499463200569153
1650870609741651000,3.26365087890625,0.00006875698454678059,0.00007794424891471863,-0.00021810643374919891
1650870609751660800,3.273660888671875,0.001569819636642933,0.0017333738505840302,-0.0005220649763941765
1650870609761671000,3.2836708984375,0.0032816994935274124,-0.0003199242055416107,0.0007506599649786949
1650870609771680800,3.2936806640625,0.0016898806206882,0.0002568960189819336,-0.0008144769817590714
1650870609781720800,3.303720947265625,0.0007210227195173502,-0.0016411393880844116,0.0005898084491491318
1650870609791731000,3.31373095703125,-0.0006000685971230268,-0.0014296770095825195,-0.0001386534422636032
1650870609801740000,3.323739990234375,0.00036532734520733356,0.0001833997666835785,0.0007447171956300735
1650870609811750000,3.33375,0.0006570261903107166,0.002023909240961075,-0.0013486193493008614
1650870609821760000,3.343760009765625,-0.0014010645681992173,0.00018819421529769897,0.000772322528064251
1650870609831769900,3.353769775390625,-0.0012269127182662487,-0.001604374498128891,0.0007638474926352501
1650870609841779000,3.363779052734375,-0.0013699244009330869,-0.0018736198544502258,-0.00019036326557397842
1650870609851789000,3.3737890625,0.0004338533617556095,-0.0005633533000946045,0.001475130207836628
1650870609861799000,3.383798828125,0.0011909899767488241,0.00027794018387794495,0.0016216039657592773
1650870609871808800,3.393808837890625,0.001514545176178217,-0.0008477717638015747,0.001358797773718834
1650870609881819000,3.40381884765625,0.001513213850557804,-0.0001361742615699768,0.0007742336019873619
1650870609891827700,3.41382763671875,0.0014677795115858316,-0.0003010109066963196,-0.0010266872122883797
1650870609901837800,3.423837890625,0.000003839842975139618,0.0014481507241725922,-0.000021610409021377563
1650870609911848000,3.433847900390625,0.0011448177974671125,-0.0021923966705799103,-0.0011514108628034592
1650870609921857800,3.44385791015625,0.0006148489192128181,0.0014870278537273407,-0.0007407516241073608
1650870609931867000,3.453866943359375,-0.0011142609873786569,-0.0022352784872055054,-0.0008348478004336357
1650870609941877000,3.463876953125,0.00011398899368941784,0.00018686801195144653,-0.0002257833257317543
1650870609951886800,3.473886962890625,-0.0020012129098176956,-0.001492779701948166,-0.000934588722884655
1650870609961897000,3.48389697265625,-0.0004413996357470751,0.0013181865215301514,0.00021749548614025116
1650870609971906000,3.493906005859375,0.0007499516941606998,-0.0005934387445449829,0.00007195863872766495
1650870609981916000,3.503916015625,-0.00005751871503889561,0.00008593499660491943,0.00031750183552503586
1650870609991926000,3.513926025390625,0.002091742353513837,0.0031890124082565308,0.001314404420554638
1650870610001936000,3.523935791015625,0.002079491736367345,0.0013058893382549286,-0.0000613844022154808
1650870610011944700,3.53394482421875,0.0013527055270969868,-0.0015011802315711975,-0.00001834612339735031
1650870610021954800,3.543954833984375,-0.00010084779933094978,0.0013497360050678253,0.0011233510449528694
1650870610031964700,3.553964599609375,0.001552423695102334,-0.00028444454073905945,0.000657801516354084
1650870610041974800,3.563974853515625,0.0004554677288979292,-0.0013803355395793915,-0.0011017490178346634
1650870610052014800,3.574014892578125,-0.0015834799269214272,-0.0008302852511405945,-0.0010953210294246674
1650870610062024700,3.584024658203125,-0.002246873453259468,0.00017905235290527344,-0.0005432479083538055
1650870610072057000,3.59405712890625,-0.000544804846867919,-0.0007097795605659485,0.0004818681627511978
1650870610082066200,3.604066162109375,-0.0006340206600725651,0.0006998330354690552,0.0004808027297258377
1650870610092076000,3.614075927734375,0.0006247253622859716,-0.0008649975061416626,0.0003340458497405052
1650870610102086100,3.624086181640625,-0.0009689101716503501,-0.0004037395119667053,0.001691725105047226
1650870610112096000,3.634095947265625,0.0016093109734356403,-0.0006894692778587341,-0.00026984047144651413
1650870610122105000,3.64410498046875,0.0013776160776615143,-0.0006314106285572052,0.002329937182366848
1650870610132115200,3.654115234375,0.001451545162126422,-0.00016624480485916138,0.0013805162161588669
1650870610142125000,3.664125,0.00010851304978132248,-0.0011257827281951904,0.0002625212073326111
1650870610152135200,3.67413525390625,0.0006393303629010916,-0.00018706172704696655,-0.00006392598152160645
1650870610162144000,3.68414404296875,-0.0010461843339726329,0.0015240199863910675,-0.00020427536219358444
1650870610172153900,3.69415380859375,-0.0006505721248686314,0.0005146041512489319,0.0004062782973051071
1650870610182164000,3.7041640625,-0.002064178232103586,-0.0009376183152198792,0.0002472875639796257
1650870610192174000,3.714174072265625,-0.0004375465214252472,0.0005069784820079803,-0.0003342675045132637
1650870610202184000,3.724183837890625,-0.0024764626286923885,-0.0004022233188152313,0.000020732171833515167
1650870610212193000,3.734193115234375,-0.0011204018956050277,-0.0023174621164798737,-0.0012364769354462624
1650870610222203100,3.744203125,0.0013384947087615728,0.00019176676869392395,-0.00011129118502140045
1650870610232213000,3.754212890625,-0.00008637853898108006,0.00030742958188056946,0.0004722718149423599
1650870610242223000,3.76422314453125,0.0018718435894697905,0.00021528452634811401,-0.000278739258646965
1650870610252232200,3.774232177734375,0.0026951320469379425,0.00155692920088768,0.001124102622270584
1650870610262242000,3.784241943359375,0.003390217199921608,-0.0004492327570915222,0.001756337471306324
1650870610272252200,3.794252197265625,0.0025773642119020224,0.000344250351190567,0.000583999790251255
1650870610282262000,3.804261962890625,0.00011846749112010002,0.00010003894567489624,0.00005562882870435715
1650870610292271000,3.81427099609375,0.00025063613429665565,-0.0004999078810214996,-0.0009835083037614822
1650870610302281200,3.82428125,-0.0004055667668581009,0.0010223574936389923,0.0004250379279255867
1650870610312291000,3.834291015625,-0.0022514392621815205,-0.00021552294492721558,-0.001086704432964325
1650870610322301200,3.84430126953125,-0.0011491569457575679,0.00033548474311828613,0.0011500846594572067
1650870610332341000,3.854341064453125,-0.0024719699285924435,0.0010446496307849884,0.0004321932792663574
1650870610342350800,3.864350830078125,-0.00006740167737007141,0.00016687065362930298,0.0005882540717720985
1650870610352361000,3.87436083984375,-0.00030019483529031277,0.00013686716556549072,-0.000772383064031601
1650870610362370000,3.8843701171875,0.0021967848297208548,0.0013395510613918304,0.0004164520651102066
1650870610372380000,3.8943798828125,0.0035251821391284466,0.0025063082575798035,0.0013825120404362679
1650870610382390000,3.90439013671875,0.0033291736617684364,-0.0004498027265071869,0.0013143355026841164
1650870610392400100,3.914400146484375,0.001843165373429656,0.0013120472431182861,0.001407349482178688
1650870610402409000,3.924408935546875,0.0011736468877643347,0.0010204315185546875,0.000004129484295845032
1650870610412419000,3.934419189453125,-0.00009611877612769604,0.00016386806964874268,-0.00032010674476623535
1650870610422429200,3.94442919921875,-0.00036563072353601456,0.0014869272708892822,0.0026391977444291115
1650870610432439000,3.95443896484375,-0.0012350424658507109,0.00011876225471496582,0.0019020875915884972
1650870610442448100,3.9644482421875,-0.002130130771547556,-0.0004415661096572876,0.0018789181485772133
1650870610452458200,3.974458251953125,-0.0021147760562598705,-0.000245068222284317,0.003865296021103859
1650870610462468000,3.984468017578125,-0.002476433292031288,-0.001375582069158554,0.004586746916174889
1650870610472478200,3.994478271484375,-0.002262871479615569,-0.0014019981026649475,0.0003291303291916847
1650870610482488000,4.004488037109375,-0.0012857577530667186,-0.0009689703583717346,-0.00023785699158906937
1650870610492497000,4.014496826171875,-0.0010536839254200459,0.0010872334241867065,-0.00025349855422973633
1650870610502507000,4.024507080078125,0.003486473113298416,-0.00045952945947647095,-0.0032394351437687874
1650870610512516900,4.034516845703125,0.0022763325832784176,-0.0009227730333805084,-0.0023029642179608345
1650870610522527000,4.04452685546875,0.003566368017345667,-0.00006416812539100647,0.002370883710682392
1650870610532536000,4.0545361328125,0.0031559912022203207,-0.00010449811816215515,0.0034744590520858765
1650870610542546000,4.0645458984375,0.0026238916907459497,-0.0009431280195713043,-0.00023132935166358948
1650870610552556000,4.07455615234375,0.0008716701995581388,-0.0005516521632671356,0.0002541709691286087
1650870610562566100,4.084566162109375,-0.0008031916804611683,0.000210542231798172,0.0009702946990728378
1650870610572575000,4.094574951171875,-0.003002408193424344,-0.00003550201654434204,-0.0010416069999337196
1650870610582585000,4.104585205078125,-0.00318004097789526,-0.0025351420044898987,0.00109185092151165
1650870610592595200,4.11459521484375,-0.004336843267083168,-0.0018879957497119904,0.0002645021304488182
1650870610602605000,4.12460498046875,-0.00364149222150445,-0.0015811994671821594,-0.001368282362818718
1650870610612645000,4.13464501953125,-0.0013983921380713582,-0.0011334791779518127,-0.0006197532638907433
1650870610622655200,4.1446552734375,-0.000993325375020504,-0.0008024461567401886,0.00022127293050289154
1650870610632665000,4.1546650390625,0.0020639034919440746,-0.0015152506530284882,0.0005259662866592407
1650870610642674000,4.164673828125,0.003352873492985964,-0.0003559775650501251,-0.00036645960062742233
1650870610652684000,4.17468408203125,0.0019532209262251854,-0.0014645569026470184,0.0012200530618429184
1650870610662694000,4.18469384765625,0.002379859331995249,-0.000081576406955719,0.002635522745549679
1650870610672704000,4.1947041015625,0.0016264324076473713,0.00017311424016952515,0.0008390797302126884
1650870610682713000,4.204713134765625,-0.0003749330062419176,0.0019648857414722443,0.0015378938987851143
1650870610692723000,4.214722900390625,-0.0010483248624950647,-0.003001689910888672,0.00029896292835474014
1650870610702733000,4.224733154296875,-0.0012651062570512295,0.00004177168011665344,0.0003516934812068939
1650870610712743200,4.2347431640625,-0.001499367062933743,0.00011222809553146362,0.0007386598736047745
1650870610722752000,4.244751953125,-0.0014833881286904216,0.0013183727860450745,-0.00022274162620306015
1650870610732762000,4.25476220703125,-0.0017302156193181872,0.0004120059311389923,-0.0012404117733240128
1650870610742772200,4.264772216796875,0.00014518247917294502,-0.001781374216079712,-0.0008816840127110481
1650870610752782000,4.274781982421875,0.0026490474119782448,0.0006430409848690033,-0.0013345228508114815
1650870610762791200,4.284791259765625,0.0037630475126206875,0.0020228251814842224,0.0009635183960199356
1650870610772801300,4.29480126953125,0.0027199203614145517,-0.00013369321823120117,0.0013317391276359558
1650870610782811100,4.30481103515625,0.0038869173731654882,-0.0002316981554031372,0.0010960493236780167
1650870610792821200,4.3148212890625,0.0023637753911316395,0.0024309679865837097,0.001756737008690834
1650870610802830800,4.324830810546875,0.0010958444327116013,0.00017473846673965454,-0.00026833079755306244
1650870610812840000,4.33483984375,-0.0034480574540793896,-0.0016213729977607727,-0.0002628173679113388
1650870610822850000,4.34485009765625,-0.0010954210301861167,-0.0004477202892303467,0.0015148427337408066
1650870610832860000,4.35485986328125,-0.002184920245781541,0.0008422695100307465,-0.000260733999311924
1650870610842870000,4.3648701171875,-0.0010120640508830547,0.00006702542304992676,0.0006894823163747787
1650870610852879000,4.374879150390625,0.0006401033606380224,-0.00038735195994377136,-0.0004105055704712868
1650870610862889000,4.384888916015625,-0.0008842900861054659,0.00033356621861457825,0.0007996354252099991
1650870610872899000,4.394899169921875,0.002744857454672456,-0.001372307538986206,0.0008638203144073486
1650870610882939100,4.404939208984375,0.0017123494762927294,-0.0012673810124397278,0.0012718169018626213
1650870610892949000,4.414948974609375,0.0035366625525057316,-0.00022049248218536377,-0.0011697681620717049
1650870610902959000,4.424958984375,0.0028125494718551636,-0.0003880038857460022,-0.0001345975324511528
1650870610912968200,4.43496826171875,0.0009262652602046728,-0.00041737034916877747,0.0005252156406641006
1650870610922978000,4.44497802734375,-0.0011214393889531493,-0.0014789067208766937,0.00008872337639331818
1650870610932988200,4.45498828125,-0.0012452354421839118,0.0010041631758213043,-0.0001538638025522232
1650870610942998300,4.464998291015625,-0.0007197938393801451,0.001366887241601944,0.0011577429249882698
1650870610953007900,4.4750078125,-0.0005702455528080463,-0.0015528611838817596,0.0014463383704423904
1650870610963017000,4.485016845703125,-0.0019937052857130766,0.0008346624672412872,-0.0019545182585716248
1650870610973027000,4.495027099609375,-0.0007137260399758816,-0.0007353797554969788,0.0004883874207735062
1650870610983037000,4.505036865234375,-0.000001596752554178238,0.001516055315732956,0.0005863914266228676
1650870610993047000,4.515047119140625,0.0014709867537021637,-0.0003077276051044464,-0.0006005531176924706
1650870611003056000,4.52505615234375,0.001081099733710289,-0.000315982848405838,-0.0007267873734235764
1650870611013066000,4.53506591796875,0.0023828758858144283,-0.0009913370013237,0.000018123537302017212
1650870611023076000,4.545076171875,0.0012406460009515285,0.00033837929368019104,0.0007004253566265106
1650870611033086000,4.5550859375,0.0010158114600926638,0.0016736015677452087,0.00022879987955093384
1650870611043095000,4.565094970703125,0.0014544341247528791,-0.00029553845524787903,-0.0013664336875081062
1650870611053105200,4.575105224609375,0.0004653192590922117,0.0008849799633026123,0.00015202444046735764
1650870611063115000,4.585114990234375,-0.0008444234263151884,-0.0013976134359836578,0.0017624376341700554
1650870611073119700,4.59511962890625,-0.0008476830553263426,0.00004921853542327881,-0.00025830697268247604
1650870611083128600,4.605128662109375,-0.001717737759463489,-0.0007667765021324158,-0.00031236931681632996
1650870611093138700,4.615138671875,-0.0012058558641001582,-0.0007785633206367493,0.0013314904645085335
1650870611103148800,4.625148681640625,0.000656492542475462,-0.0009439475834369659,0.0014388160780072212
1650870611113158700,4.63515869140625,-0.0010594460181891918,0.001265648752450943,-0.00017696619033813477
1650870611123168800,4.645168701171875,-0.0000879247672855854,0.00011116638779640198,0.000645151361823082
1650870611133177600,4.655177490234375,0.002355890581384301,-0.0005300678312778473,0.002439885400235653
1650870611143187500,4.6651875,0.0010589307639747858,0.002292085438966751,-0.0015391437336802483
1650870611153227500,4.6752275390625,-0.0003718764055520296,-0.0002503730356693268,0.0013081980869174004
1650870611163237600,4.685237548828125,0.00036155804991722107,0.0005033016204833984,0.001179567538201809
1650870611173247500,4.69524755859375,0.00045405188575387,-0.0004659295082092285,-0.0014438405632972717
1650870611183257600,4.705257568359375,0.001646348973736167,-0.001261148601770401,0.0004928102716803551
1650870611193266700,4.7152666015625,-0.00038389069959521294,-0.0008923448622226715,-0.0007412349805235863
1650870611203276500,4.725276611328125,-0.0010246472666040063,-0.001034557819366455,0.00005824584513902664
1650870611213286700,4.73528662109375,0.001700440188869834,0.00015847012400627136,-0.000035975128412246704
1650870611223296800,4.745296875,0.0004697933327406645,0.0012282617390155792,-0.0003843167796730995
1650870611233305600,4.7553056640625,-0.00024417578242719173,0.0010021142661571503,-0.0008283723145723343
1650870611243315700,4.765315673828125,-0.0007736121769994497,-0.0011968575417995453,-0.0003774994984269142
1650870611253325800,4.775325927734375,0.0002300906926393509,0.0014117024838924408,0.0008519291877746582
1650870611263335700,4.785335693359375,-0.0003299722447991371,-0.00020723417401313782,0.00022315699607133865
1650870611273345800,4.795345703125,-0.0005874438211321831,-0.00013813376426696777,-0.0005262261256575584
1650870611283354600,4.805354736328125,-0.0008391125593334436,-0.0010952763259410858,-0.0004319502040743828
1650870611293364500,4.815364501953125,-0.0007046435493975878,0.00028637051582336426,-0.000020769424736499786
1650870611303374600,4.82537451171875,-0.00006841449066996574,-0.00015651434659957886,0.0002447478473186493
1650870611313384400,4.835384521484375,0.0005971409846097231,-0.004153143614530563,0.00016359146684408188
1650870611323393500,4.8453935546875,-0.0013949036365374923,-0.0012782588601112366,-0.0009962152689695358
1650870611333403600,4.855403564453125,0.0002125843893736601,-0.00010773912072181702,0.0015194304287433624
1650870611343413500,4.86541357421875,0.0006575984880328178,0.0002720281481742859,0.0011886656284332275
1650870611353423600,4.875423583984375,-0.0012438732665032148,-0.0008715130388736725,0.00043145008385181427
1650870611363432700,4.8854326171875,-0.0010502614313736558,0.0014265291392803192,0.0011782003566622734
1650870611373442600,4.895442626953125,0.000045040156692266464,0.0010476261377334595,0.00046000536531209946
1650870611383452700,4.90545263671875,-0.0020737708546221256,0.0009759850800037384,-0.001454540528357029
1650870611393462800,4.915462890625,0.0007533265743404627,0.000491015613079071,0.000006360001862049103
1650870611403472600,4.92547265625,-0.00032791681587696075,-0.0013241954147815704,-0.000044240616261959076
1650870611413481700,4.935481689453125,0.0005119843408465385,-0.0005087330937385559,-0.0004786355420947075
1650870611423522800,4.945522705078125,-0.00048350519500672817,0.0002356208860874176,0.0001698443666100502
1650870611433531600,4.95553173828125,0.00018798583187162876,0.0010826475918293,0.00005717296153306961
1650870611443541500,4.96554150390625,-0.001281280186958611,0.0007787793874740601,-0.00020115356892347336
1650870611453551600,4.975551513671875,-0.000028633512556552887,-0.0012266412377357483,0.00007743295282125473
1650870611463561500,4.9855615234375,0.00042943027801811695,0.00014568492770195007,-0.0003057960420846939
1650870611473570600,4.995570556640625,0.0004042347427457571,-0.0008224807679653168,-0.00043753255158662796
1650870611483580700,5.00558056640625,-0.0011377355549484491,-0.0009140968322753906,0.0015278803184628487
1650870611493590500,5.015590576171875,-0.0008496171794831753,-0.0003068484365940094,-0.00018601678311824799
1650870611503600600,5.0256005859375,0.0021666791290044785,0.0005272515118122101,-0.00027230381965637207
1650870611513609700,5.035609619140625,-0.0005433838814496994,0.00047292187809944153,0.0012565869837999344
1650870611523619600,5.04561962890625,-0.0010397969745099545,-0.0010139234364032745,0.00002247840166091919
1650870611533629700,5.055629638671875,-0.0004841946065425873,-0.00027878209948539734,-0.00006157718598842621
1650870611543639600,5.0656396484375,-0.0021835577208548784,0.0016032755374908447,-0.0004320228472352028
1650870611553649700,5.075649658203125,-0.00213428121060133,-0.0010311640799045563,0.00012744497507810593
1650870611563658800,5.08565869140625,-0.000091104069724679,-0.00008014962077140808,-0.00038947444409132004
1650870611573668600,5.095668701171875,-0.0009792584460228682,-0.00008283555507659912,-0.00009190384298563004
1650870611583678700,5.1056787109375,0.0002979936543852091,-0.0012748651206493378,0.00023699644953012466
1650870611593688800,5.115688720703125,0.001503362087532878,-0.0015364401042461395,0.0014190711081027985
1650870611603697700,5.12569775390625,0.0003909599035978317,0.0009570792317390442,-0.0003093210980296135
1650870611613707500,5.13570751953125,0.0015978878363966942,-0.0008090771734714508,0.000006977468729019165
1650870611623717600,5.145717529296875,0.0004876160528510809,-0.000802949070930481,-0.0013957098126411438
1650870611633727500,5.1557275390625,0.0004970917943865061,0.000540412962436676,0.0002707177773118019
1650870611643736600,5.165736572265625,0.000648359302431345,0.0001329481601715088,0.00040440913289785385
1650870611653746700,5.17574658203125,0.00046661379747092724,0.000492531806230545,-0.0001021362841129303
1650870611663756500,5.185756591796875,0.0005795317701995373,-0.00017032772302627563,-0.00025340355932712555
1650870611673766700,5.1957666015625,-0.0010810464154928923,-0.000010520219802856445,-0.0005252929404377937
1650870611683806700,5.205806640625,0.0006300345994532108,-0.00004221126437187195,-0.0004962645471096039
1650870611693816600,5.215816650390625,-0.0001484204549342394,0.00019529834389686584,-0.0005000699311494827
1650870611703826700,5.22582666015625,0.0008068552706390619,-0.00018100440502166748,-0.00047583505511283875
1650870611713835800,5.235835693359375,0.0013534685131162405,-0.0003197789192199707,-0.00025167688727378845
1650870611723845600,5.245845703125,0.002791841747239232,-0.0006108619272708893,0.0011486131697893143
1650870611733855700,5.255855712890625,0.0009226864203810692,0.00026914477348327637,0.00021082255989313126
1650870611743865900,5.265865966796875,0.0005847311113029718,0.000924285501241684,0.0002662166953086853
1650870611753874400,5.27587451171875,0.0005493005737662315,-0.0015032961964607239,0.00027903076261281967
1650870611763884500,5.285884521484375,-0.0010424709180369973,-0.0002633295953273773,-0.00001524854451417923
1650870611773894700,5.295894775390625,-0.001306228805333376,-0.0012570396065711975,0.0007874453440308571
1650870611783904500,5.305904541015625,-0.000981855788268149,0.0002559050917625427,-0.00045598484575748444
1650870611793913600,5.31591357421875,-0.0004002808127552271,-0.0002917461097240448,0.00009600911289453506
1650870611803923700,5.325923828125,0.0003864169120788574,0.0004129260778427124,-0.0009641945362091064
1650870611813933600,5.33593359375,0.000614924356341362,-0.0011420659720897675,0.0004839925095438957
1650870611823943700,5.345943603515625,0.0006343654822558165,-0.0003116913139820099,0.00004856567829847336
1650870611833952800,5.355952880859375,0.0011735279113054276,-0.00045606866478919983,0.0005306275561451912
1650870611843962600,5.365962646484375,-0.0006677813362330198,-0.0013202652335166931,0.00022569578140974045
1650870611853972700,5.37597265625,-0.00022889184765517712,-0.00042885541915893555,0.00003624148666858673
1650870611863982600,5.385982666015625,0.0015311914030462503,0.0001602359116077423,-0.0011022603139281273
1650870611873992700,5.39599267578125,0.000901676481589675,-0.0012850798666477203,-0.00014947354793548584
1650870611884001800,5.406001708984375,-0.00027677230536937714,0.0005152150988578796,-0.00004694238305091858
1650870611894011600,5.41601171875,0.0014438091311603785,0.00013240426778793335,-0.00012767035514116287
1650870611904021800,5.426021728515625,-0.0011575667886063457,0.0004908628761768341,-0.0009274175390601158
1650870611914031900,5.436031982421875,-0.00027180789038538933,0.00025931745767593384,0.0015150727704167366
1650870611924040400,5.44604052734375,0.00040223821997642517,0.0006697103381156921,0.00007670000195503235
1650870611934050600,5.456050537109375,0.00043165404349565506,-0.00038400664925575256,0.0013201171532273293
1650870611944060700,5.466060791015625,-0.000010164221748709679,-0.001165643334388733,0.0012625930830836296
1650870611954100700,5.476100830078125,-0.0002012674231082201,-0.0005008615553379059,-0.0002065105363726616
1650870611964110600,5.486110595703125,-0.00010326295159757137,0.00005307421088218689,-0.00010371208190917969
1650870611974120700,5.49612060546875,0.0010496550239622593,0.00036593154072761536,0.00024280138313770294
1650870611984129800,5.5061298828125,0.0008943930733948946,-0.00042183324694633484,-0.00046986062079668045
1650870611994139600,5.5161396484375,0.00018333340995013714,0.0014685653150081635,-0.0009588208049535751
1650870612004149800,5.526149658203125,-0.000721608754247427,0.0007135607302188873,-0.00031247176229953766
1650870612014159600,5.53615966796875,-0.0011526169255375862,0.001313578337430954,-0.00017319899052381516
1650870612024169700,5.546169677734375,-0.00033902120776474476,-0.0004643462598323822,0.0004079025238752365
1650870612034178800,5.5561787109375,-0.0010350120719522238,-0.0014240965247154236,0.0006794584915041924
1650870612044188700,5.566188720703125,-0.0012722997926175594,-0.0008637681603431702,-0.00006755907088518143
1650870612054198800,5.57619873046875,-0.00027513853274285793,0.0004757903516292572,-0.0013430900871753693
1650870612064208600,5.586208740234375,0.001571497181430459,0.0004864409565925598,-0.0005161790177226067
1650870612074210600,5.59621044921875,0.0010498317424207926,-0.0002185031771659851,0.00007719360291957855
1650870612084220700,5.606220703125,0.0006594124715775251,0.0009170696139335632,-0.00022134743630886078
1650870612094230500,5.61623046875,0.00042939838021993637,-0.0000849403440952301,0.0005186004564166069
1650870612104240600,5.62624072265625,0.0009567043744027615,0.00006233155727386475,-0.0017512114718556404
1650870612114249700,5.636249755859375,0.0004922035150229931,0.0001039654016494751,0.0007477579638361931
1650870612124259600,5.646259521484375,0.00023547490127384663,0.001079212874174118,0.00046146754175424576
1650870612134269700,5.656269775390625,0.00019393302500247955,-0.0011513270437717438,0.000061032362282276154
1650870612144279800,5.66627978515625,0.0017667957581579685,-0.001635488122701645,-0.0005509620532393456
1650870612154289000,5.676288818359375,-0.00037759472616016865,0.0002457275986671448,0.0001989239826798439
1650870612164298800,5.686298828125,0.000519624212756753,0.0010899491608142853,0.0001051807776093483
1650870612174308900,5.696308837890625,0.0014145656023174524,-0.0009304769337177277,-0.0006254157051444054
1650870612184318700,5.706318603515625,0.00009789876639842987,0.0006988458335399628,0.0015240218490362167
1650870612194328800,5.716328857421875,0.0008672650437802076,0.0009821131825447083,-0.000050761736929416656
1650870612204338000,5.726337890625,0.001597503898665309,0.00006598606705665588,0.00025576818734407425
1650870612214378800,5.736378662109375,0.0005586841143667698,-0.0004282854497432709,0.00028305500745773315
1650870612224387600,5.7463876953125,0.00048544700257480145,-0.000022951513528823853,-0.0016261646524071693
1650870612234397700,5.756397705078125,0.00013623828999698162,-0.0001738220453262329,-0.0001316135749220848
1650870612244407600,5.766407470703125,0.0002635375130921602,0.0009092874825000763,0.0003847731277346611
1650870612254417700,5.776417724609375,0.000422855606302619,0.0016164928674697876,-0.0006288355216383934
1650870612264426800,5.7864267578125,-0.00041683902963995934,-0.002006206661462784,0.0000971425324678421
1650870612274436600,5.7964365234375,0.0003508753143250942,0.0012178383767604828,-0.00008719787001609802
1650870612284446700,5.80644677734375,-0.0010387622751295567,0.0005296766757965088,-0.00023580249398946762
1650870612294456800,5.816456787109375,-0.0002647610381245613,0.000030025839805603027,0.001311534084379673
1650870612304465700,5.826465576171875,-0.0011702359188348055,0.0008396245539188385,0.0009581325575709343
1650870612314475800,5.836475830078125,-0.00016984669491648674,-0.00006554648280143738,0.0009324615821242332
1650870612324486000,5.84648583984375,0.00046052364632487297,0.0012892037630081177,0.0002142069861292839
1650870612334495700,5.856495849609375,0.0012393728829920292,0.0015391334891319275,0.00040052738040685654
1650870612344505900,5.866505859375,0.0012095454148948193,-0.0016926117241382599,-0.00019149389117956161
1650870612354515000,5.876514892578125,0.0014979089610278606,0.00033463165163993835,-0.00010172370821237564
1650870612364524800,5.88652490234375,0.0009287912398576736,0.0006520822644233704,-0.000010643154382705688
1650870612374535000,5.896534912109375,-0.00029172166250646114,0.0004040934145450592,0.0004182690754532814
1650870612384544800,5.906544677734375,0.000007351161912083626,0.00046214833855628967,-0.0001172926276922226
1650870612394553600,5.9165537109375,0.00032748281955718994,-0.00025994330644607544,0.0009788395836949348
1650870612404563700,5.926563720703125,-0.0002938327379524708,-0.0012868605554103851,-0.0004555387422442436
1650870612414573600,5.936573486328125,-0.0006664036773145199,-0.00011188164353370667,0.00009193923324346542
1650870612424583700,5.946583740234375,-0.00047252560034394264,-0.00015955418348312378,0.00007329694926738739
1650870612434592800,5.9565927734375,0.0015383444260805845,-0.0005717873573303223,-0.0009677056223154068
1650870612444602600,5.9666025390625,-0.0009442542213946581,0.000470038503408432,0.001331135630607605
1650870612454612700,5.97661279296875,0.0012894137762486935,0.0002204403281211853,0.00032176822423934937
1650870612464622800,5.986622802734375,-0.00009143538773059845,0.0005107223987579346,0.0001665055751800537
1650870612474662700,5.99666259765625,0.000324024586006999,-0.0007262453436851501,0.0005178535357117653
1650870612484672800,6.0066728515625,-0.00018091080710291862,0.00028708577156066895,0.00048190169036388397
1650870612494683000,6.016682861328125,0.00019786623306572437,0.0015516355633735657,0.000914321281015873
1650870612504691700,6.026691650390625,-0.0005379649810492992,0.0011875815689563751,0.0008605252951383591
1650870612514701800,6.036701904296875,-0.0012922995956614614,0.0003414228558540344,-0.0014648213982582092
1650870612524712000,6.0467119140625,-0.001383113325573504,-0.0004958771169185638,-0.0012978417798876762
1650870612534721800,6.0567216796875,0.00028632627800107,0.0011721998453140259,-0.00020267628133296967
1650870612544730600,6.066730712890625,0.0002634231932461262,0.00019295886158943176,-0.0004373006522655487
1650870612554740700,6.07674072265625,0.0012023542076349258,-0.00068625807762146,-0.00033259857445955276
1650870612564750600,6.08675048828125,0.0016617495566606522,-0.002307593822479248,0.0014250874519348145
1650870612574760700,6.0967607421875,-0.0008887201547622681,0.0012377090752124786,0.0007401807233691216
1650870612584769800,6.106769775390625,0.000018619000911712646,0.00036179646849632263,0.0001825150102376938
1650870612594779600,6.116779541015625,0.000411981251090765,0.0002164505422115326,0.000581471249461174
1650870612604789800,6.126789794921875,0.0009789681062102318,0.0004662536084651947,0.002201472409069538
1650870612614799600,6.136799560546875,0.00010616891086101532,-0.00011611729860305786,0.0009854892268776894
1650870612624808700,6.14680859375,-0.0010278051486238837,-0.000023439526557922363,0.0005151750519871712
1650870612634818800,6.15681884765625,-0.00033398368395864964,0.00011711567640304565,0.0012435568496584892
1650870612644828700,6.16682861328125,0.00011049793101847172,-0.001018725335597992,0.0002150433138012886
1650870612654838800,6.1768388671875,-0.00035153189674019814,0.0001391395926475525,0.001418466679751873
1650870612664849000,6.186848876953125,0.0016112178564071655,-0.0010576844215393066,0.0008325716480612755
1650870612674857700,6.196857666015625,-0.000606244895607233,-0.0008139573037624359,0.0011112689971923828
1650870612684867800,6.206867919921875,-0.0000829335767775774,-0.000028323382139205933,-0.001446431502699852
1650870612694878000,6.2168779296875,-0.00034425314515829086,0.000831160694360733,-0.0007207896560430527
1650870612704887800,6.2268876953125,0.00045309728011488914,-0.00038164108991622925,-0.0010238569229841232
1650870612714896600,6.236896728515625,0.000356761971488595,-0.00008069723844528198,0.0003184685483574867
1650870612724906800,6.24690673828125,-0.000041380757465958595,-0.000004000961780548096,0.00020475126802921295
1650870612734946800,6.25694677734375,-0.000460735522210598,-0.0002514161169528961,0.001392238773405552
1650870612744956700,6.266956787109375,-0.00021013198420405388,0.00020531564950942993,0.000016981735825538635
1650870612754966800,6.276966796875,-0.00013792258687317371,-0.00143524631857872,0.001330808736383915
1650870612764976600,6.2869765625,0.0005158835556358099,-0.002171609550714493,0.0005121529102325439
1650870612774985700,6.29698583984375,0.0014683150220662355,0.00036593154072761536,0.00026394613087177277
1650870612784995800,6.306995849609375,0.0005026527214795351,0.0014418475329875946,-0.0008319448679685593
1650870612795005700,6.317005615234375,0.0009823113214224577,-0.0014862678945064545,-0.00045290403068065643
1650870612805015800,6.327015869140625,0.00015832902863621712,-0.0002055540680885315,-0.0006696861237287521
1650870612815026000,6.33702587890625,-0.00001376122236251831,0.00028694793581962585,0.0011619338765740395
1650870612825034800,6.34703466796875,-0.0005471925251185894,0.0008691176772117615,0.0003081252798438072
1650870612835044900,6.357044921875,0.0013075638562440872,-0.00033362582325935364,0.00032644253224134445
1650870612845055000,6.367054931640625,0.0011331266723573208,-0.00016611069440841675,0.0003027403727173805
1650870612855064800,6.37706494140625,0.0005586401093751192,-0.0012401044368743896,0.0007470017299056053
1650870612865073700,6.38707373046875,-0.0013250135816633701,-0.0006672553718090057,0.0013432838022708893
1650870612875083800,6.397083740234375,0.0005840028170496225,-0.00006157159805297852,-0.0008088061586022377
1650870612885093600,6.40709375,0.0013195679057389498,0.0002604052424430847,0.00022423360496759415
1650870612895103700,6.417103759765625,-0.00042132288217544556,-0.0003147795796394348,-0.0014106780290603638
1650870612905112800,6.42711279296875,-0.00006738887168467045,0.00012410804629325867,-0.0002836277708411217
1650870612915122700,6.437122802734375,0.000284761656075716,-0.0010882355272769928,-0.0004529627040028572
1650870612925132800,6.4471328125,-0.00008808099664747715,0.002428203821182251,0.0008429316803812981
1650870612935142700,6.457142578125,-0.00018931832164525986,-0.00015878304839134216,-0.00008562300354242325
1650870612945152800,6.46715283203125,-0.0010489868000149727,0.0004436224699020386,0.000866456888616085
1650870612955161900,6.477161865234375,0.0007097315974533558,0.00000768899917602539,-0.00035105086863040924
1650870612965171700,6.487171630859375,-0.00029001920484006405,-0.000060752034187316895,-0.0006186990067362785
1650870612975181800,6.497181884765625,0.0015195903833955526,0.00043590739369392395,0.000870315358042717
1650870612985192000,6.50719189453125,-0.0005275814328342676,0.0003336407244205475,0.0006743073463439941
1650870612995231700,6.517231689453125,0.0002913807984441519,-0.00011884421110153198,0.001073284074664116
1650870613005241900,6.527241943359375,0.000633330550044775,-0.0006890259683132172,0.001224018633365631
1650870613015250700,6.537250732421875,-0.002437173156067729,-0.001316022127866745,-0.00021206121891736984
1650870613025260800,6.5472607421875,-0.001267779036425054,0.0007250234484672546,0.0014675939455628395
1650870613035270700,6.557270751953125,-0.00014017289504408836,0.0006451494991779327,-0.0008959602564573288
1650870613045280800,6.56728076171875,-0.00041554379276931286,-0.000611327588558197,-0.0011676028370857239
1650870613055289900,6.577289794921875,0.0005769727285951376,-0.000037476420402526855,0.0005087247118353844
1650870613065299700,6.5872998046875,-0.00046938331797719,-0.0016902349889278412,0.000547340139746666
1650870613075314400,6.597314453125,0.0005573765374720097,0.0028740502893924713,0.0015128599479794502
1650870613085324500,6.607324462890625,0.0015914819668978453,-0.0012975260615348816,0.00024732574820518494
1650870613095334700,6.617334716796875,0.00161912408657372,-0.00008277222514152527,0.0006377259269356728
1650870613105343500,6.627343505859375,0.00026623811572790146,-0.001741655170917511,-0.00130558293312788
1650870613115353600,6.637353515625,0.0002023919951170683,-0.000338137149810791,-0.000615251250565052
1650870613125363700,6.64736376953125,0.0012857660185545683,-0.00183829665184021,0.00040686968713998795
1650870613135373600,6.65737353515625,0.0003557626623660326,-0.00004814565181732178,-0.00025960803031921387
1650870613145382400,6.66738232421875,0.00009024539031088352,-0.000750955194234848,0.000008838251233100891
1650870613155392500,6.677392578125,-0.000018860911950469017,-0.0013924837112426758,0.00011344626545906067
1650870613165402400,6.68740234375,-0.00019249902106821537,-0.002150151878595352,0.0000830870121717453
1650870613175412500,6.69741259765625,-0.0004712382797151804,0.0006385557353496552,-0.00014145206660032272
1650870613185421600,6.707421630859375,0.0002669899258762598,-0.000025101006031036377,-0.00001761503517627716
1650870613195431400,6.717431396484375,0.0005059039685875177,0.000581447035074234,0.000037513673305511475
1650870613205441500,6.727441650390625,0.0006963198538869619,0.0004938282072544098,0.00007719546556472778
1650870613215451400,6.737451416015625,0.0001622054260224104,0.00025747716426849365,0.00008296314626932144
1650870613225460500,6.74746044921875,0.0005960343405604362,0.0013600252568721771,-0.0002504643052816391
1650870613235470600,6.757470703125,-0.0000944614876061678,0.0001881234347820282,-0.0012775100767612457
1650870613245480400,6.76748046875,-0.0013762408634647727,-0.0007077641785144806,0.00018057040870189667
1650870613255520500,6.7775205078125,-0.002559695625677705,-0.000010341405868530273,0.00023653730750083923
1650870613265530600,6.787530517578125,0.001212139381095767,-0.002495869994163513,-0.00044363364577293396
1650870613275540500,6.79754052734375,0.00116394879296422,0.002382136881351471,0.0011267587542533875
1650870613285550600,6.807550537109375,-9.178183972835541e-7,0.00004574283957481384,-0.0011545047163963318
1650870613295559400,6.817559326171875,0.00034853280521929264,0.0006725750863552094,-0.0005654469132423401
1650870613305569500,6.827569580078125,0.0011125938035547733,0.00021025165915489197,-0.0013111317530274391
1650870613315579400,6.837579345703125,-0.00037284032441675663,0.0005536191165447235,0.002494070678949356
1650870613325589500,6.847589599609375,0.0005475482903420925,0.0011344552040100098,0.0016213525086641312
1650870613335598600,6.8575986328125,0.00017300504259765148,-0.0016868188977241516,-0.0003918837755918503
1650870613345608400,6.8676083984375,0.0005727454554289579,0.00025196373462677,-0.0009511476382613182
1650870613355618600,6.87761865234375,-0.00016042147763073444,-0.0009530782699584961,0.001064441166818142
1650870613365628400,6.88762841796875,-0.0015173020074144006,0.000919390469789505,0.0011637769639492035
1650870613375637500,6.897637451171875,-0.0011012621689587831,-0.00010658800601959229,0.0009346306324005127
1650870613385647600,6.907647705078125,-0.0003640991635620594,-0.000291675329208374,0.0014361031353473663
1650870613395657500,6.917657470703125,-0.0004053795710206032,0.00023351237177848816,0.00030982866883277893
1650870613405667600,6.92766748046875,0.0010865232907235622,-0.0004085749387741089,-0.0005216104909777641
1650870613415677400,6.937677490234375,0.0016367367934435606,-0.0009099580347537994,-0.0001355120912194252
1650870613425686500,6.9476865234375,-0.0005944597069174051,-0.0010130219161510468,-0.00015228986740112305
1650870613435696600,6.957696533203125,0.0003000418655574322,-0.00018233060836791992,0.0007214155048131943
1650870613445706500,6.96770654296875,-0.00036415038630366325,-0.000771690160036087,0.001489204354584217
1650870613455716600,6.977716552734375,-0.00005362648516893387,0.00035963207483291626,0.00017312448471784592
1650870613465725400,6.987725341796875,0.0005746132228523493,-0.0003010965883731842,-0.00026150327175855637
1650870613475735600,6.997735595703125,0.00002584070898592472,-0.0020837970077991486,-0.0005820505321025848
1650870613485745400,7.007745361328125,-0.0013443557545542717,-0.0001005418598651886,-0.0010832566767930984
1650870613495755500,7.017755615234375,-0.0011775789316743612,0.0005496107041835785,0.001256805844604969
1650870613505764600,7.0277646484375,0.0005721179768443108,0.00018528848886489868,-0.0011272560805082321
1650870613515805400,7.037805419921875,-0.0001496484037488699,-0.0011529140174388885,-0.0010970812290906906
1650870613525814500,7.047814453125,-0.0009866799227893353,-0.0014945939183235168,0.00028936099261045456
1650870613535824600,7.05782470703125,-0.0003647254779934883,-0.0011555254459381104,-0.0013378588482737541
1650870613545834500,7.06783447265625,0.000026226509362459183,0.0002817809581756592,0.0008286228403449059
1650870613555844600,7.0778447265625,-0.0003611338324844837,-0.0004886984825134277,-0.0012279339134693146
1650870613565854500,7.0878544921875,0.0004796262364834547,-0.00010839849710464478,-0.00020368210971355438
1650870613575863600,7.097863525390625,0.00010367436334490776,-0.0018934234976768494,-0.0006776386871933937
1650870613585873700,7.107873779296875,0.0016725428868085146,0.0004871785640716553,0.00039215292781591415
1650870613595883500,7.117883544921875,0.0004773398395627737,0.001608729362487793,0.0007455432787537575
1650870613605893600,7.1278935546875,0.0009979880414903164,0.000008437782526016235,0.0003995988517999649
1650870613615902500,7.13790234375,-0.00017813034355640411,-0.001208178699016571,-0.0012211473658680916
1650870613625912300,7.147912353515625,0.002020841697230935,0.0010467171669006348,-0.00007492303848266602
1650870613635922400,7.15792236328125,-0.0006467348430305719,0.00009711459279060364,0.0034327125176787376
1650870613645932500,7.1679326171875,-0.001465124310925603,-0.0012595020234584808,-0.00005230028182268143
1650870613655941400,7.17794140625,-0.0004537263885140419,-0.00008187070488929749,0.0020854147151112556
1650870613665951500,7.187951416015625,0.00027438183315098286,0.0016585029661655426,-0.000014221295714378357
1650870613675961600,7.197961669921875,-0.00031012995168566704,-0.0018757134675979614,0.0011708103120326996
1650870613685971500,7.207971435546875,0.000014242948964238167,0.0015592314302921295,-0.00048301275819540024
1650870613695980500,7.21798046875,-0.0002816920168697834,-0.0006916224956512451,0.0007156068459153175
1650870613705990700,7.22799072265625,0.0010155336931347847,-0.00035899505019187927,0.0004980266094207764
1650870613716000500,7.23800048828125,0.0010011040139943361,0.00009433925151824951,-0.0003301650285720825
1650870613726010600,7.2480107421875,0.0014407916460186243,0.00022776424884796143,0.0004386892542243004
1650870613736020500,7.2580205078125,0.0005447652656584978,0.00028454139828681946,-0.0005264785140752792
1650870613746029600,7.268029541015625,0.0011024312116205692,-0.0011916495859622955,-0.000253237783908844
1650870613756039700,7.278039794921875,0.0001055386383086443,-0.00004808977246284485,-0.00003300141543149948
1650870613766049500,7.288049560546875,-0.0012412217911332846,-0.0004547536373138428,0.0013936543837189674
1650870613776089300,7.29808935546875,0.0005803292151540518,0.0011781752109527588,0.001287815161049366
1650870613786099500,7.308099365234375,-0.000391458161175251,-0.0014591552317142487,0.00005423929542303085
1650870613796109300,7.318109375,-0.0008197927381843328,0.00030397623777389526,-0.0012478157877922058
1650870613806118400,7.328118408203125,-0.00009674462489783764,0.0005338042974472046,0.00009175390005111694
1650870613816128500,7.33812841796875,-0.0006164845544844866,-0.00019385665655136108,0.00030082277953624725
1650870613826138600,7.348138671875,0.00008286163210868835,-0.0014753714203834534,0.0007761968299746513
1650870613836148500,7.3581484375,0.0004926738329231739,-0.0006657913327217102,0.0001350073143839836
1650870613846157600,7.368157470703125,-0.001130789052695036,0.00042397528886795044,-0.0005592787638306618
1650870613856167700,7.378167724609375,0.00004596961662173271,-0.0007044859230518341,0.00021913927048444748
1650870613866177500,7.388177490234375,0.0005735419690608978,0.001096874475479126,-0.0005811406299471855
1650870613876187600,7.398187744140625,0.0005122872535139322,-0.0031098611652851105,-0.0016173329204320908
1650870613886197500,7.408197509765625,-0.001460582367144525,-0.0003550872206687927,0.0003230459988117218
1650870613896206600,7.41820654296875,-0.0000174669548869133,-0.00040587037801742554,0.0008820053189992905
1650870613906216700,7.428216796875,0.001513584516942501,0.0004577934741973877,-0.00022293999791145325
1650870613916226600,7.4382265625,-0.00007000635378062725,-0.0015080980956554413,0.00018356461077928543
1650870613926236400,7.448236328125,0.00027567194774746895,0.0005206987261772156,-0.0005219066515564919
1650870613936245500,7.45824560546875,-0.00037375325337052345,0.0003962218761444092,0.0003845319151878357
1650870613946255400,7.46825537109375,-0.00021875719539821148,0.0006004869937896729,-0.0003891168162226677
1650870613956265500,7.478265380859375,0.0014387452974915504,0.0015902332961559296,-0.00020117592066526413
1650870613966275300,7.488275390625,0.0005686907097697258,-0.0009333789348602295,0.00011707190424203873
1650870613976284400,7.498284423828125,0.00013177795335650444,-0.00040422379970550537,-0.0011723116040229797
1650870613986294500,7.50829443359375,0.0001602738630026579,-0.00048305466771125793,-0.00013208016753196716
1650870613996304600,7.5183046875,0.00036621722392737865,0.00044466927647590637,0.0010176636278629303
1650870614006314500,7.528314453125,-0.0012015857500955462,0.001018580049276352,0.00041765347123146057
1650870614016324600,7.53832470703125,-0.00011878483928740025,-0.00015411153435707092,0.00028952769935131073
1650870614026333700,7.548333740234375,-0.0011630103690549731,0.0006339177489280701,0.00010097585618495941
1650870614036374500,7.55837451171875,-0.0004659155383706093,0.0005484223365783691,-0.0017057312652468681
1650870614046383600,7.568383544921875,0.0005479499232023954,-0.00010831281542778015,0.0011603627353906631
1650870614056393700,7.578393798828125,-0.0011485330760478973,0.00037481263279914856,0.00043469853699207306
1650870614066403600,7.588403564453125,0.0005375142209231853,-0.0013312101364135742,-0.0015458948910236359
1650870614076399000,7.598399169921875,0.001094762934371829,-0.00009556487202644348,-0.0022323280572891235
1650870614086408200,7.608408203125,-0.00036092079244554043,-0.0020516589283943176,-0.001338837668299675
1650870614096418000,7.61841796875,0.0005114458035677671,0.002034571021795273,-0.0016414010897278786
1650870614106428200,7.62842822265625,0.0005519259721040726,-0.0012669526040554047,-0.00025762245059013367
1650870614116438300,7.638438232421875,0.0013102511875331402,0.00024249032139778137,-0.0015706289559602737
1650870614126447000,7.648447021484375,0.0003469856455922127,0.0009298548102378845,-0.001543198712170124
1650870614136457200,7.658457275390625,-0.00003975210711359978,0.00042001157999038696,0.0011276975274085999
1650870614146467300,7.66846728515625,-0.001009408850222826,-0.0010290145874023438,0.0004571136087179184
1650870614156477200,7.678477294921875,0.0002054374199360609,0.0005234293639659882,-0.0005427822470664978
1650870614166487300,7.6884873046875,-0.0005594224203377962,0.0011918805539608002,0.001184011809527874
1650870614176496400,7.698496337890625,-0.0005778605118393898,0.000215090811252594,0.0014601219445466995
1650870614186506200,7.70850634765625,0.00004611816257238388,-0.001115690916776657,-0.001033928245306015
1650870614196516400,7.718516357421875,0.0003273284528404474,0.0007646381855010986,0.00029000919312238693
1650870614206526200,7.728526123046875,0.0009917870629578829,-0.0008766688406467438,0.00019919592887163162
1650870614216535000,7.73853515625,-0.00012289430014789104,-0.0004027634859085083,0.0012604612857103348
1650870614226545200,7.748545166015625,-0.00031623966060578823,-0.0022770948708057404,-0.0013062935322523117
1650870614236555000,7.758554931640625,0.0010229123290628195,0.0007006414234638214,0.0012479359284043312
1650870614246565000,7.768565185546875,-0.00019734795205295086,-0.0009068436920642853,-0.0003760596737265587
1650870614256574200,7.77857421875,-0.0005697733722627163,0.0008038878440856934,-0.00045812688767910004
1650870614266584000,7.788583984375,-0.0012909573270007968,-0.00021503865718841553,0.00019940733909606934
1650870614276594200,7.79859423828125,0.0004521547816693783,0.00020606070756912231,0.00011237431317567825
1650870614286604300,7.808604248046875,0.00160503713414073,-0.00035959482192993164,0.0002785557880997658
1650870614296644000,7.81864404296875,0.000759027898311615,-0.0009630024433135986,0.00004135817289352417
1650870614306654200,7.828654296875,-0.0001584310084581375,-0.0011052154004573822,0.0003369692713022232
1650870614316664300,7.838664306640625,0.00007655750960111618,-0.0007267110049724579,-0.0015666363760828972
1650870614326673200,7.848673095703125,-0.0008478255476802588,0.0005217790603637695,0.0008512474596500397
1650870614336683300,7.858683349609375,-0.00008943630382418633,0.000647321343421936,-0.00044810306280851364
1650870614346693400,7.868693359375,-0.0003613450098782778,0.0027509555220603943,-0.0004670117050409317
1650870614356703200,7.878703125,-0.0008243476040661335,-0.0007502324879169464,-0.0000914623960852623
1650870614366712000,7.888712158203125,-0.00009144586510956287,-0.0015033744275569916,0.0008872495964169502
1650870614376722200,7.89872216796875,-0.0021974900737404823,-0.0010245107114315033,-0.00003803148865699768
1650870614386732000,7.90873193359375,-0.0006054523400962353,0.0005840398371219635,-0.0001807762309908867
1650870614396742100,7.9187421875,0.0003019010182470083,-0.0020589828491210938,0.00006570667028427124
1650870614406751200,7.928751220703125,-0.0002618902362883091,0.00009178370237350464,0.0008510733023285866
1650870614416761000,7.938760986328125,0.001505016116425395,0.00043493881821632385,-0.0002718055620789528
1650870614426771200,7.948771240234375,-0.00005799322389066219,0.00015983358025550842,0.0004730811342597008
1650870614436781000,7.958781005859375,0.000297412509098649,-0.00031283870339393616,-0.0002920534461736679
1650870614446790100,7.9687900390625,0.00031818519346415997,0.001340184360742569,-0.000402575358748436
1650870614456800300,7.97880029296875,-0.00030391616746783257,0.0010890476405620575,-0.0000017005950212478638
1650870614466810000,7.98881005859375,-0.0005270892288535833,0.00034283101558685303,0.0011767484247684479
1650870614476820200,7.9988203125,-0.0021808685269206762,-0.002336248755455017,0.000257209874689579
1650870614486830300,8.008830322265625,-0.0013931054854765534,-0.0003474019467830658,-0.00011723022907972336
1650870614496839200,8.018839111328125,0.00019256048835814,-0.0005499869585037231,-0.0013571158051490784
1650870614506849300,8.028849365234375,-0.0007608511950820684,-0.0012157782912254333,0.0006857952103018761
1650870614516859400,8.038859375,0.00014035613276064396,-0.00011999532580375671,-0.0004307553172111511
1650870614526869000,8.048868896484375,-0.00043302238918840885,-0.0005418397486209869,-0.001501346006989479
1650870614536878000,8.058878173828125,0.00037085101939737797,0.00031325966119766235,-0.00005088094621896744
1650870614546919200,8.068919189453124,0.0008933630306273699,0.0012722648680210114,0.0009592557325959206
1650870614556928300,8.07892822265625,-0.0011421034578233957,-0.00006973743438720703,0.0014112694188952446
1650870614566938000,8.088938232421874,0.0003330213949084282,0.0004056394100189209,0.0002839537337422371
1650870614576948200,8.0989482421875,-0.0016044609947130084,-0.0024381540715694427,0.000746862031519413
1650870614586958000,8.1089580078125,-0.0023701197933405638,0.0004854649305343628,0.0007575144991278648
1650870614596967200,8.11896728515625,-0.0023386285174638033,0.00024490803480148315,-0.00008596573024988174
1650870614606977300,8.128977294921874,-0.000385466031730175,-0.0001590922474861145,-0.000575188547372818
1650870614616987100,8.138987060546874,-0.0011689155362546444,0.00041145458817481995,0.0013732733204960823
1650870614626997200,8.148997314453124,0.0002934262156486511,-0.001122262328863144,0.0023256195709109306
1650870614637007400,8.15900732421875,0.0008160159923136234,-0.0006895847618579865,-0.00013813655823469162
1650870614647016200,8.16901611328125,-0.0003075716085731983,-0.0016248859465122223,0.00733416061848402
1650870614657026300,8.1790263671875,-0.0002181543968617916,-0.00448642298579216,-0.002353537827730179
1650870614667036400,8.189036376953124,-0.000023743603378534317,-0.009905155748128891,0.002202332019805908
1650870614677046000,8.1990458984375,0.00025563198141753674,-0.008639588952064514,0.004396575503051281
1650870614687055000,8.20905517578125,-0.0012381350388750434,0.001763518899679184,0.0033949604257941246
1650870614697065200,8.219065185546874,-0.000047361478209495544,-0.007983071729540825,0.0015975413843989372
1650870614707075000,8.229074951171874,0.00017048511654138565,-0.00332067534327507,-0.0015833377838134766
1650870614717085200,8.239085205078124,-0.0017479171510785818,-0.0030155666172504425,0.0054883346892893314
1650870614727094300,8.24909423828125,-0.00105203315615654,-0.0010040812194347382,0.00043818261474370956
1650870614737104100,8.259104248046874,0.000014077406376600266,0.006065677851438522,0.0006229681894183159
1650870614747114200,8.2691142578125,-0.00030417018570005894,-0.0032511241734027863,0.003952984698116779
1650870614757124000,8.2791240234375,-0.000005884794518351555,-0.0008689276874065399,0.005168451927602291
1650870614767133200,8.28913330078125,0.0004569727461785078,-0.004187490791082382,0.006227058358490467
1650870614777143300,8.299143310546874,0.0010864154901355505,-0.005901794880628586,0.0016645798459649086
1650870614787153200,8.309153076171874,0.0007809509988874197,-0.0006500408053398132,0.0015327529981732368
1650870614797163300,8.319163330078124,-0.00008609169162809849,0.0006720013916492462,0.001567235216498375
1650870614807203300,8.329203369140625,-0.0010679991682991385,-0.0008364133536815643,0.0008037062361836433
1650870614817213200,8.339213134765625,-0.002501186914741993,-0.000646539032459259,0.0018768273293972015
1650870614827223000,8.34922314453125,-0.000654284842312336,-0.0008950121700763702,0.00038013141602277756
1650870614837232000,8.359232177734375,-0.0015206097159534693,-0.0001272447407245636,-0.0008315583691000938
1650870614847242200,8.3692421875,-0.0012361841509118676,0.0006072558462619781,0.0010233335196971893
1650870614857252000,8.379252197265625,-0.0009068376384675503,0.0013476349413394928,0.002309948205947876
1650870614867262200,8.38926220703125,-0.0014019194059073925,0.0010749287903308868,0.0008579930290579796
1650870614877271300,8.399271240234375,-0.0012277394998818636,0.0004863813519477844,0.0030175065621733665
1650870614887281200,8.40928125,-0.0012338646920397878,-0.0008878111839294434,-0.0004933392629027367
1650870614897291300,8.419291259765625,-0.0011912460904568434,0.0013204552233219147,0.0031529301777482033
1650870614907301000,8.429301025390625,-0.00012065540067851543,0.00129009410738945,0.0031830230727791786
1650870614917310200,8.439310302734375,0.00046792556531727314,0.00004454702138900757,0.002092454582452774
1650870614927320300,8.4493203125,0.0011105462908744812,0.0004850327968597412,0.004648024216294289
1650870614937330200,8.459330078125,0.0010722994338721037,0.0017351247370243073,0.004302658140659332
1650870614947340300,8.46934033203125,-0.00025315582752227783,-0.0008553341031074524,0.0008187107741832733
1650870614957350100,8.47935009765625,0.00050386693328619,0.0013686716556549072,0.004373718053102493
1650870614967359000,8.48935888671875,-0.00021918118000030518,0.000995296984910965,0.0011209333315491676
1650870614977369000,8.499369140625,0.00007179542444646358,-0.0008074045181274414,0.0024756425991654396
1650870614987379200,8.509379150390625,0.0002502270508557558,0.0005801022052764893,0.0014141062274575233
1650870614997389000,8.51938916015625,-0.0012793863425031304,-0.00022576749324798584,0.00005691312253475189
1650870615007398100,8.529398193359375,-0.0005499464459717274,-0.0003037974238395691,0.001074506901204586
1650870615017408300,8.539408203125,-0.0014588473131880164,-0.0005642585456371307,-0.001595265232026577
1650870615027418000,8.549418212890625,-0.00030276901088654995,0.002401970326900482,-0.00017340388149023056
1650870615037428200,8.55942822265625,-0.0008797256741672754,-0.0007245764136314392,0.00007182732224464417
1650870615047437300,8.569437255859375,0.000014830147847533226,-0.0008332356810569763,-0.0006392374634742737
1650870615057447200,8.579447265625,0.0010141425300389528,-0.0013887807726860046,-0.0006828662008047104
1650870615067487200,8.5894873046875,0.0006173313595354557,-0.0001826360821723938,-0.0010618343949317932
1650870615077486600,8.599486572265626,0.0016678627580404282,-0.0013283230364322662,-0.004293934442102909
1650870615087496400,8.609496337890626,0.001206337008625269,0.00015186145901679993,-0.0000051800161600112915
1650870615097506600,8.619506591796876,0.0006824326701462269,-0.0009650662541389465,-0.0010598832741379738
1650870615107516400,8.629516357421876,-0.00007443781942129135,-0.00034588202834129333,-0.0011533601209521294
1650870615117525200,8.639525146484376,-0.00006108731031417847,-0.00089210644364357,-0.0006860168650746346
1650870615127535400,8.649535400390626,-0.0013788193464279175,-0.00299999862909317,-0.0033225463703274727
1650870615137545500,8.65954541015625,0.0014525516889989376,0.0006408132612705231,-0.0017686793580651283
1650870615147555300,8.669555419921876,-0.00011791451834142208,0.0004051215946674347,-0.0034675095230340958
1650870615157564400,8.679564453125,0.001222705701366067,-0.0017413832247257233,-0.0007610311731696129
1650870615167574500,8.689574462890626,0.0026211317162960768,-0.00043563544750213623,-0.0022209761664271355
1650870615177584400,8.69958447265625,0.002183332806453109,-0.0009640008211135864,-0.0031171292066574097
1650870615187594500,8.709594482421876,0.002109030494466424,0.000614456832408905,-0.00354163721203804
1650870615197603600,8.719603515625,0.0035962581168860197,-0.0013570822775363922,-0.0007929885759949684
1650870615207613400,8.729613525390626,0.0033746829722076654,-0.0006747804582118988,-0.004877479746937752
1650870615217623600,8.73962353515625,0.0020952068734914064,0.0016874410212039948,-0.002773536369204521
1650870615227633400,8.74963330078125,0.0006520398892462254,-0.0004811696708202362,-0.0021069468930363655
1650870615237642500,8.759642578125,0.0013182151596993208,-0.0008952803909778595,-0.0028412286192178726
1650870615247652600,8.769652587890626,-0.0016637264052405953,-0.0008750371634960175,-0.0009884675964713097
1650870615257662500,8.779662353515626,-0.0007608460728079081,0.0007284358143806458,-0.0018883012235164642
1650870615267672600,8.789672607421876,-0.0012074582045897841,0.0005769021809101105,-0.0006912108510732651
1650870615277682400,8.799682373046876,0.000794984633103013,-0.002151530236005783,-0.00029577314853668213
1650870615287691300,8.809691162109376,0.00026608072221279144,0.0006660930812358856,-0.0003777984529733658
1650870615297701400,8.819701416015626,0.0012585376389324665,-0.0008271224796772003,-0.0019644666463136673
1650870615307711500,8.82971142578125,0.0026987753808498383,0.003661900758743286,-0.0006246306002140045
1650870615317751300,8.839751220703125,0.002194275613874197,0.0002277679741382599,-0.001303163357079029
1650870615327761400,8.849761474609375,0.0015758895315229893,-0.0032409988343715668,-0.0015319287776947021
1650870615337771500,8.859771484375,0.0015994629357010126,-0.0017389878630638123,0.0009599952027201653
1650870615347780400,8.8697802734375,-0.00035582995042204857,0.0011534728109836578,0.0009141890332102776
1650870615357790500,8.87979052734375,-0.000248507596552372,0.0003260299563407898,-0.0004913397133350372
1650870615367800600,8.889800537109375,-0.002078365534543991,0.00008634477853775024,0.0007592802867293358
1650870615377810400,8.899810546875,-0.002185816178098321,0.0001989416778087616,0.0001372992992401123
1650870615387820500,8.909820556640625,0.0005508481990545988,0.0012679360806941986,0.0005796505138278008
1650870615397829600,8.91982958984375,-0.0010155529016628861,0.002198275178670883,0.0034556398168206215
1650870615407839500,8.929839599609375,-0.00096734962426126,-0.0003543645143508911,-0.0012757321819663048
1650870615417849600,8.939849609375,-0.0005350306164473295,0.0011593140661716461,0.0007767705246806145
1650870615427859500,8.949859375,0.0003688461147248745,-0.0009520389139652252,-0.0003926241770386696
1650870615437868300,8.959868408203125,-0.001117172883823514,-0.0015707798302173615,-0.0005665281787514687
1650870615447878400,8.96987841796875,-0.00012727594003081322,0.0004449672996997833,0.0009288368746638298
1650870615457888300,8.97988818359375,-0.00034250528551638126,-0.0007921643555164337,-0.0028478382155299187
1650870615467898400,8.9898984375,-0.0010825978824868798,0.00017109885811805725,0.0019439877942204475
1650870615477907500,8.999907470703125,-0.0008843354880809784,-0.0005886852741241455,-0.0013328120112419128
1650870615487917300,9.009917236328125,0.0005497767124325037,0.0010784529149532318,0.0015228958800435066
1650870615497927400,9.019927490234375,0.00017063156701624393,-0.00047539547085762024,-0.00036279764026403427
1650870615507937500,9.0299375,0.000569839496165514,0.0013797618448734283,-0.00013136863708496094
1650870615517946400,9.0399462890625,-0.00036473036743700504,0.00004848092794418335,0.00036894623190164566
1650870615527956500,9.04995654296875,0.0020816493779420853,-0.00013421103358268738,-0.0005170879885554314
1650870615537966600,9.059966552734375,0.001969507895410061,0.003207191824913025,0.0030248695984482765
1650870615547976400,9.0699765625,0.0032038833014667034,-0.0016205869615077972,-0.0050969719886779785
1650870615557986600,9.079986572265625,0.004132300149649382,-0.0016595646739006042,-0.0035835402086377144
1650870615567995400,9.089995361328125,0.005091570317745209,0.0011697746813297272,0.00035713985562324524
1650870615578036200,9.1000361328125,0.0021119778975844383,-0.00414474681019783,-0.006760953925549984
1650870615588045300,9.11004541015625,0.0014318069443106651,0.000649474561214447,-0.001072707585990429
1650870615598055400,9.120055419921876,-0.0019012941047549248,0.0013986825942993164,-0.001309485174715519
1650870615608065300,9.130065185546876,-0.00524222943931818,-0.001310553401708603,-0.004672258161008358
1650870615618075400,9.140075439453126,-0.005754363723099232,-0.0002361088991165161,0.0002504820004105568
1650870615628084500,9.15008447265625,-0.00508298072963953,-0.002118431031703949,-0.002419603057205677
1650870615638094300,9.16009423828125,-0.0025325582828372717,-0.0006475485861301422,-0.0015108883380889893
1650870615648104400,9.1701044921875,-0.0015186929376795888,0.0016164034605026245,0.0012689195573329926
1650870615658114600,9.180114501953126,0.0032902408856898546,0.0005340166389942169,-0.0007340889424085617
1650870615668123400,9.190123291015626,0.0049200961366295815,-0.001063082367181778,-0.002691245637834072
1650870615678133500,9.200133544921876,0.006798834539949894,-0.00039120763540267944,-0.004761187359690666
1650870615688143600,9.2101435546875,0.004790278151631355,0.00013050809502601624,-0.006962556391954422
1650870615698153500,9.220153564453126,0.00551646389067173,-0.0005180127918720245,-0.005219430662691593
1650870615708163600,9.23016357421875,0.0008410185109823942,-0.0009164214134216309,-0.00646525714546442
1650870615718172400,9.24017236328125,-0.0019725949969142675,-0.0010777898132801056,-0.009316477924585342
1650870615728182300,9.250182373046876,-0.0029039024375379086,0.000284682959318161,-0.008688772097229958
1650870615738192400,9.2601923828125,-0.0030072552617639303,-0.003190755844116211,-0.00527353398501873
1650870615748202200,9.2702021484375,-0.0021662290673702955,-0.0014109648764133453,-0.008301815018057823
1650870615758211300,9.28021142578125,-0.0001849341206252575,-0.002233535051345825,-0.007761330343782902
1650870615768221400,9.290221435546876,0.001149842282757163,0.0006706416606903076,-0.004792970605194569
1650870615778231300,9.300231201171876,0.004554854705929756,0.003735121339559555,-0.0016293106600642204
1650870615788241400,9.310241455078126,0.005656071938574314,-0.0010159574449062347,-0.0030977781862020493
1650870615798250500,9.32025048828125,0.006628432776778936,0.0006100386381149292,-0.004080262966454029
1650870615808260400,9.33026025390625,0.00520710414275527,0.0016819611191749573,-0.0024117929860949516
1650870615818270500,9.3402705078125,0.0025320390705019236,0.00014870986342430115,-0.0010515376925468445
1650870615828280600,9.350280517578126,-0.0008547028992325068,-0.0019192323088645935,-0.0029061632230877876
1650870615838320400,9.3603203125,-0.003152494551613927,-0.0009724646806716919,-0.008336306549608707
1650870615848330500,9.37033056640625,-0.0036134878173470497,-0.0017644912004470825,0.00368520338088274
1650870615858340600,9.380340576171875,-0.0053284442983567715,0.000624489039182663,-0.003521706908941269
1650870615868349400,9.390349365234375,-0.00048708380199968815,-0.0014487802982330322,-0.004587236791849136
1650870615878359300,9.400359375,0.00019667204469442368,-0.00048753246665000916,0.004678299650549889
1650870615888369400,9.410369384765625,0.002830005716532469,0.0038366392254829407,0.0030279383063316345
1650870615898379300,9.420379150390625,0.0030638889875262976,-0.001543872058391571,-0.004270809702575207
1650870615908388400,9.430388427734375,0.003188258735463023,0.0019773580133914948,0.0018874835222959518
1650870615918398500,9.4403984375,0.003000963944941759,0.0022308528423309326,0.004737996496260166
1650870615928408300,9.450408203125,-0.0014851309824734926,0.00007555633783340454,-0.001889013685286045
1650870615938418400,9.46041845703125,-0.006717751733958721,0.0002615787088871002,-0.008589481003582478
1650870615948427500,9.470427490234375,-0.005674591287970543,0.0017694607377052307,0.008157806470990181
1650870615958437400,9.480437255859375,-0.006253809668123722,0.0004890114068984985,0.0021166466176509857
1650870615968447500,9.490447509765625,-0.006090824026614428,-0.0013863854110240936,-0.007664346136152744
1650870615978457300,9.500457275390625,-0.0026541203260421753,-0.0019095800817012787,-0.0016305968165397644
1650870615988466400,9.510466552734375,-0.00046766502782702446,-0.0009170211851596832,0.005015587899833918
1650870615998476500,9.5204765625,0.004827440716326237,0.00029696524143218994,-0.0032446496188640594
1650870616008486400,9.530486328125,0.006248502992093563,-0.0008947998285293579,-0.005443356931209564
1650870616018496500,9.54049658203125,0.00729080056771636,0.00257313996553421,0.0038183648139238358
1650870616028506600,9.550506591796875,0.006042843218892813,0.0025979094207286835,0.00107557512819767
1650870616038515500,9.560515380859375,0.003430096199735999,0.0005035065114498138,-0.004546978510916233
1650870616048525300,9.570525390625,0.0014993043150752783,-0.0005881227552890778,0.0012094434350728989
1650870616058535400,9.580535400390625,-0.0028442475013434887,-0.0024148672819137573,0.003970032557845116
1650870616068545300,9.590545166015625,-0.005273316986858845,-0.0010966025292873383,-0.0023075714707374573
1650870616078572300,9.600572265625,-0.007844209671020508,-0.0007362253963947296,-0.00022005289793014526
1650870616088582400,9.61058251953125,-0.004409531597048044,0.0006986856460571289,0.000527496449649334
1650870616098622200,9.620622314453126,-0.0019459057366475463,0.000054076313972473145,0.00018905382603406906
1650870616108632300,9.63063232421875,-0.0002566627226769924,0.00029642507433891296,-0.0029516126960515976
1650870616118642400,9.640642333984376,0.004119136370718479,0.0006059110164642334,0.0005078790709376335
1650870616128652300,9.65065234375,0.004972679074853659,0.0008011199533939362,0.0011225361377000809
1650870616138661400,9.660661376953126,0.005294632166624069,-0.0008244998753070831,-0.0019669970497488976
1650870616148671500,9.67067138671875,0.004092748276889324,0.0016658194363117218,-0.0011371560394763947
1650870616158681300,9.680681396484376,0.0026900842785835266,-0.0035282783210277557,0.0015859268605709076
1650870616168691500,9.69069140625,0.0010583652183413506,-0.0013551414012908936,-0.0012679165229201317
1650870616178701300,9.700701416015624,-0.002441760618239641,0.00006300210952758789,-0.000993127003312111
1650870616188710400,9.71071044921875,-0.003914222586899996,-0.00014871731400489807,0.000667886808514595
1650870616198720500,9.720720458984376,-0.004318393766880035,-0.0004963800311088562,-0.0001330571249127388
1650870616208730400,9.73073046875,-0.005687524564564228,-0.0013435333967208862,-0.003064665012061596
1650870616218740500,9.740740478515624,-0.004216144792735577,0.0004052966833114624,-0.0013106632977724075
1650870616228749300,9.750749267578126,-0.0008003744296729565,0.0009749457240104675,0.0020537087693810463
1650870616238759200,9.76075927734375,0.002014997648075223,-0.00006703659892082214,-0.0014261109754443169
1650870616248769300,9.770769287109376,0.005378304049372673,-0.0010582655668258667,-0.0024277260527014732
1650870616258779400,9.780779296875,0.003407298354431987,0.0021825768053531647,-0.000657789409160614
1650870616268788200,9.790788330078126,0.005564991384744644,0.0011940114200115204,-0.0008306289091706276
1650870616278798300,9.80079833984375,0.0038734092377126217,0.0011901482939720154,-0.0012206034734845161
1650870616288808400,9.810808349609376,0.00044219265691936016,0.0008772239089012146,-0.0004869028925895691
1650870616298818300,9.820818359375,-0.001677394495345652,0.000060170888900756836,0.0013067377731204033
1650870616308827400,9.830827392578126,-0.0038137822411954403,-0.0011361204087734222,-0.0007249880582094193
1650870616318837500,9.84083740234375,-0.0047186994925141335,0.000030040740966796875,-0.0010368479415774345
1650870616328847400,9.850847412109376,-0.004954122938215733,0.00006439536809921265,0.0016018124297261238
1650870616338857500,9.860857421875,-0.0020019537769258022,-0.0012299157679080963,0.00010263361036777496
1650870616348867300,9.870867431640624,-0.00025092530995607376,-0.0013106092810630798,-0.0023903511464595795
1650870616358907400,9.880907470703125,0.0016443016938865185,-0.00013561546802520752,-0.0012093717232346535
1650870616368917500,9.89091748046875,0.0030075740069150925,0.0016982369124889374,-0.00034357793629169464
1650870616378926300,9.90092626953125,0.004250003024935722,0.00032446905970573425,-0.001824340783059597
1650870616388936200,9.910936279296875,0.004817256238311529,0.0005665495991706848,-0.00039528869092464447
1650870616398946300,9.9209462890625,0.002490211045369506,0.0003883093595504761,0.00045265816152095795
1650870616408956400,9.930956298828125,-0.00037002377212047577,-0.0010404735803604126,-0.0015441803261637688
1650870616418965200,9.94096533203125,-0.0008837564382702112,-0.0014094114303588867,-0.0015498120337724686
1650870616428975400,9.950975341796875,-0.003435863647609949,0.0008934251964092255,0.0007373103871941566
1650870616438985500,9.9609853515625,-0.004417360294610262,-0.000033661723136901855,-0.00036856718361377716
1650870616448995300,9.970995361328125,-0.005312981083989143,-0.00042913854122161865,-0.001517721451818943
1650870616459004400,9.98100439453125,-0.0027743345126509666,-0.0007937178015708923,-0.0004227627068758011
1650870616469014500,9.9910146484375,-0.0009596566669642925,-0.0021825581789016724,0.0003620712086558342
1650870616479024400,10.0010244140625,0.0024514899123460054,-0.00031911954283714294,0.0021680910140275955
1650870616489034500,10.011034423828125,0.0032698793802410364,-0.00024428591132164,0.00042025838047266006
1650870616499044400,10.02104443359375,0.004330738447606564,0.000703468918800354,-0.00026537198573350906
1650870616509053400,10.031053466796875,0.004395985044538975,0.001094955950975418,-0.00010185409337282181
1650870616519063600,10.0410634765625,0.002432639244943857,0.0005518458783626556,-0.0010618790984153748
1650870616529073400,10.051073486328125,0.003478728700429201,-0.00021194666624069214,0.00001004338264465332
1650870616539083500,10.06108349609375,-0.0005357202608138323,-0.001861758530139923,-0.00028583407402038574
1650870616549092400,10.07109228515625,-0.0010435848962515593,-0.001222863793373108,-0.0014363201335072517
1650870616559102200,10.081102294921875,-0.002819277811795473,-0.001209445297718048,-0.0006686188280582428
1650870616569112300,10.0911123046875,-0.003940202295780182,-0.00013832375407218933,0.00002619996666908264
1650870616579122400,10.101122314453125,-0.0026573799550533295,-0.0007118918001651764,-0.00014483463019132614
1650870616589131300,10.11113134765625,-0.0009268578141927719,0.0005238167941570282,-0.0011587003245949745
1650870616599141400,10.121141357421875,0.0025015512946993113,0.00021933019161224365,-0.0016346229240298271
1650870616609151500,10.1311513671875,0.0031668085139244795,0.00027419254183769226,-0.00019491836428642273
1650870616619191300,10.14119140625,0.00294411089271307,-0.00036897510290145874,-0.0005884319543838501
1650870616629201400,10.151201416015626,0.00294304545968771,-0.0011426247656345367,-0.0016608871519565582
1650870616639211500,10.16121142578125,0.003457520389929414,-0.000057287514209747314,0.0002855239436030388
1650870616649221400,10.171221435546874,0.0010785188060253859,0.00020716339349746704,-0.0002875877544283867
1650870616659230500,10.18123046875,-0.0004263860173523426,-0.0006718374788761139,-0.001149953342974186
1650870616669240600,10.191240478515626,-0.002405380830168724,-0.0003221668303012848,-0.0013880403712391853
1650870616679250400,10.20125048828125,-0.003066255711019039,0.001713830977678299,-0.0005108099430799484
1650870616689260500,10.211260498046874,-0.002720843767747283,-0.0012968704104423523,-0.0004178658127784729
1650870616699269400,10.221269287109376,-0.0034874710254371166,-0.0009056888520717621,0.0013776719570159912
1650870616709279200,10.231279296875,-0.0022650801111012697,0.00027834996581077576,0.000036504119634628296
1650870616719289300,10.241289306640626,-0.00022148340940475464,0.0005976743996143341,0.0000356500968337059
1650870616729299200,10.25129931640625,0.003037426620721817,0.0007952786982059479,-0.0005539730191230774
1650870616739308300,10.261308349609376,0.004749298095703125,0.0005417577922344208,0.00023569166660308838
1650870616749318400,10.271318359375,0.0025585817638784647,0.000678379088640213,-0.00005645770579576492
1650870616759328300,10.281328369140626,0.0017273062840104103,-0.000027995556592941284,0.00002794526517391205
1650870616769338400,10.29133837890625,0.001518514472991228,-0.001333475112915039,0.00036217179149389267
1650870616779348500,10.301348388671874,0.00041305855847895145,-0.00019718706607818604,0.0007916111499071121
1650870616789357300,10.311357421875,-0.0018897767877206206,0.0011088252067565918,0.0001537846401333809
1650870616799367400,10.321367431640626,-0.0034332810901105404,-0.0009937174618244171,-0.000793146900832653
1650870616809377500,10.33137744140625,-0.004111854359507561,-0.0017026513814926147,0.0004577403888106346
1650870616819387400,10.341387451171874,-0.004126421175897121,0.0004939474165439606,0.0001131296157836914
1650870616829396500,10.351396484375,-0.0023740611504763365,-0.0005875639617443085,0.0009099477902054787
1650870616839406600,10.361406494140626,0.0013358856085687876,-0.00009946152567863464,-0.0003378484398126602
1650870616849416400,10.37141650390625,0.0014932781923562288,0.00041292980313301086,-0.00016660802066326141
1650870616859426600,10.381426513671874,0.0043057603761553764,0.0012551136314868927,0.0012494837865233421
1650870616869435400,10.391435302734376,0.004088446497917175,-0.00027993321418762207,-0.0004157908260822296
1650870616879476200,10.401476318359375,0.005901034455746412,-0.0009537562727928162,-0.0010647596791386604
1650870616889485300,10.4114853515625,0.0009488863870501518,-0.000020854175090789795,0.00019571371376514435
1650870616899495400,10.421495361328125,-0.0006031396333128214,0.0017145462334156036,-0.00119001604616642
1650870616909505300,10.43150537109375,-0.0006151238922029734,0.00024261698126792908,0.00030428357422351837
1650870616919515400,10.441515380859375,-0.004405439831316471,0.0009035728871822357,-0.0013236170634627342
1650870616929525200,10.451525146484375,-0.003938854206353426,-0.0014234967529773712,-0.002466912381350994
1650870616939534300,10.461534423828125,-0.00344155915081501,0.0006086044013500214,-0.0014089280739426613
1650870616949544400,10.47154443359375,-0.002224494470283389,-0.0003032609820365906,0.00012105796486139297
1650870616959554600,10.481554443359375,-0.0005797450430691242,0.00006853416562080383,-0.0011914903298020363
1650870616969564400,10.491564453125,0.00197289464995265,-0.0008734278380870819,0.0012961681932210922
1650870616979573500,10.501573486328125,0.002473626984283328,0.0017556659877300262,0.0012364210560917854
1650870616989583600,10.51158349609375,0.0036142587196081877,0.0016704462468624115,-0.00042698904871940613
1650870616999593500,10.521593505859375,0.0027632983401417732,0.00045069679617881775,0.0010119248181581497
1650870617009603600,10.531603515625,0.001977932173758745,0.0010009035468101501,0.001065453514456749
1650870617019612400,10.5416123046875,0.001110993092879653,0.0006554834544658661,0.0010890346020460129
1650870617029622300,10.551622314453125,0.000402059406042099,0.0010664090514183044,-0.00038236193358898163
1650870617039632400,10.56163232421875,-0.0033260995987802744,-0.0018882118165493011,-0.0015532458201050758
1650870617049642200,10.571642333984375,-0.0017532367492094636,-0.0012202896177768707,-0.0019782865419983864
1650870617059651300,10.5816513671875,-0.00419433182105422,-0.00037185847759246826,-0.0006259586662054062
1650870617069661400,10.591661376953125,-0.002661949023604393,0.000007640570402145386,0.0007975008338689804
1650870617079662300,10.601662353515625,-0.0007607822772115469,0.0008353479206562042,-0.00009847618639469147
1650870617089672400,10.61167236328125,0.00006160186603665352,0.0009224340319633484,-0.0004958193749189377
1650870617099682300,10.621682373046875,0.0015767384320497513,0.0015185065567493439,-0.0014497963711619377
1650870617109691100,10.631691162109375,0.002967707347124815,0.0008359402418136597,-0.0010649701580405235
1650870617119701200,10.641701171875,0.002812300343066454,0.0014844462275505066,0.00028156209737062454
1650870617129711000,10.651711181640625,0.0031696967780590057,0.0005424879491329193,0.000453069806098938
1650870617139751200,10.661751220703126,0.0010727818589657545,-0.0011033862829208374,0.0004312656819820404
1650870617149761300,10.67176123046875,-0.0023248789366334677,0.00010941922664642334,-0.00010323058813810349
1650870617159771100,10.681771240234376,-0.0011042081750929356,-0.00014886260032653809,-0.0015300745144486427
1650870617169780200,10.6917802734375,-0.0027319323271512985,-0.0017949603497982025,-0.0009449785575270653
1650870617179790300,10.701790283203126,-0.004115203395485878,0.00034055858850479126,0.0004750248044729233
1650870617189800200,10.71180029296875,-0.003630241611972451,0.0005711875855922699,-0.00022804923355579376
1650870617199810300,10.721810302734376,-0.0023962045088410378,-0.0008552521467208862,-0.0008607236668467522
1650870617209819400,10.7318193359375,0.0009114416316151619,0.000650499016046524,-0.00001623481512069702
1650870617219829200,10.741829345703126,0.001780875027179718,0.001764938235282898,-0.0008237939327955246
1650870617229839400,10.75183935546875,0.0029452089220285416,-0.0005493499338626862,-0.0011324547231197357
1650870617239849200,10.76184912109375,0.0027541795279830694,-0.0013295412063598633,0.0008283033967018127
1650870617249859300,10.771859375,0.0019198113586753607,0.0009149722754955292,-0.0015349853783845901
1650870617259868200,10.7818681640625,0.00158366234973073,0.001360241323709488,-0.000058203935623168945
1650870617269878300,10.791878173828126,0.0010414430871605873,-0.00003525242209434509,-0.00020361226052045822
1650870617279888100,10.80188818359375,-0.0023009520955383778,-0.0024491995573043823,0.00025168526917696
1650870617289898200,10.811898193359376,-0.0010082537773996592,0.00031196698546409607,-0.0012210430577397346
1650870617299907300,10.8219072265625,-0.002400409895926714,-0.0011365115642547607,-0.00024283397942781448
1650870617309917200,10.831917236328126,-0.003147426526993513,0.0006965398788452148,-0.0001576123759150505
1650870617319927300,10.84192724609375,-0.003650028957054019,0.0002080276608467102,0.0005970988422632217
1650870617329937200,10.851937255859376,-0.0006675547920167446,-0.0014074482023715973,-0.001400006003677845
1650870617339946200,10.8619462890625,0.00024468288756906986,-0.0003287196159362793,0.00025087036192417145
1650870617349956400,10.871956298828126,0.0024979833979159594,-0.000014465302228927612,0.00012969691306352615
1650870617359966200,10.88196630859375,0.0021354055497795343,0.0012806393206119537,-0.0006807399913668633
1650870617369976300,10.891976318359376,0.0017854662146419287,-0.0012075528502464294,0.0002777315676212311
1650870617379985400,10.9019853515625,0.001735867466777563,-0.002106592059135437,-0.00029284972697496414
1650870617389995300,10.911995361328126,0.0008002989925444126,0.00025296956300735474,0.00033911876380443573
1650870617400036400,10.922036376953125,-0.0015051356749609113,0.001970060169696808,-0.0006933482363820076
1650870617410045200,10.932045166015625,-0.0016180537641048431,0.001465391367673874,0.0003026742488145828
1650870617420055000,10.942054931640625,-0.0019101608777418733,0.0015317760407924652,-0.0006980933248996735
1650870617430065200,10.952065185546875,-0.002215359127148986,-0.0010909028351306915,0.0002465303987264633
1650870617440075300,10.9620751953125,-0.0018409027252346277,-0.0006343871355056763,0.00007247272878885269
1650870617450084000,10.972083984375,-0.0019351786468178034,-0.003009926527738571,-0.0020149126648902893
1650870617460094200,10.98209423828125,-0.001402748515829444,-0.0013753660023212433,-0.00036920420825481415
1650870617470104300,10.992104248046875,0.0010841113980859518,0.00021320953965187073,-0.0007100887596607208
1650870617480114200,11.0021142578125,0.0016487014945596457,0.0011189058423042297,0.00036452990025281906
1650870617490123300,11.012123291015625,0.003196530742570758,0.0004949271678924561,-0.00021364260464906693
1650870617500133400,11.02213330078125,0.0009082537144422531,-0.0005783960223197937,-0.0013842517510056496
1650870617510143200,11.032143310546875,0.0015463470481336117,0.0005646310746669769,0.00008714478462934494
1650870617520153300,11.0421533203125,-0.000058609526604413986,0.0013900995254516602,0.0000656377524137497
1650870617530162400,11.052162353515625,-0.002215770073235035,-0.0012472309172153473,-0.0008640717715024948
1650870617540172300,11.06217236328125,-0.0020441594533622265,0.0014759339392185211,-0.0006439434364438057
1650870617550182400,11.072182373046875,-0.0021666649263352156,-0.0005789585411548615,-0.0019249245524406433
1650870617560192300,11.082192138671875,-0.000790818128734827,-0.0007362402975559235,-0.0008662566542625427
1650870617570202400,11.092202392578125,-0.0017737908056005836,-0.003138940781354904,-0.00038182735443115234
1650870617580211200,11.102211181640625,-0.0001798500306904316,-0.0014807209372520447,-0.000013132579624652863
1650870617590221000,11.112220947265625,0.00137144117616117,-0.001303885132074356,-0.0021652327850461006
1650870617600231200,11.122231201171875,0.002043253742158413,-0.0009179636836051941,-0.00129038468003273
1650870617610241300,11.1322412109375,0.0025154324248433113,-0.0016364827752113342,0.0005051186308264732
1650870617620250000,11.14225,0.0006490480154752731,0.0005389824509620667,-0.001325688324868679
1650870617630260200,11.15226025390625,0.001499928068369627,-0.0019151195883750916,-0.00024311337620019913
1650870617640270300,11.162270263671875,-0.0014278714079409838,0.0020616352558135986,0.0005489019677042961
1650870617650280200,11.1722802734375,-0.0011527668684720993,0.0019005127251148224,0.000362480990588665
1650870617660320300,11.1823203125,-0.0018319528317078948,-0.0005422420799732208,-0.001492014154791832
1650870617670330400,11.192330322265626,-0.0022948102559894323,-0.002455722540616989,0.0003407727926969528
1650870617680339500,11.20233935546875,-0.0005000419914722443,-0.0007999502122402191,-0.0002906760200858116
1650870617690349300,11.212349365234376,-0.0011072427732869983,-0.0022657550871372223,-0.0003173071891069412
1650870617700359400,11.222359375,-0.00024616275914013386,-0.00009848922491073608,-0.0006843963637948036
1650870617710369300,11.232369384765626,0.00012987549416720867,-0.000856693834066391,-0.00045030470937490463
1650870617720379400,11.24237939453125,0.002607109025120735,0.0026664286851882935,-0.0005475757643580437
1650870617730388200,11.25238818359375,0.0018086936324834824,-0.00039141252636909485,0.00005030352622270584
1650870617740398000,11.262398193359376,0.0009897879790514708,-0.0014796182513237,0.00009674858301877975
1650870617750408200,11.272408203125,0.0016228214371949434,-0.0019033290445804596,0.0001409566029906273
1650870617760418300,11.282418212890626,-0.00021646334789693356,-0.0016178376972675323,0.00004421267658472061
1650870617770427100,11.29242724609375,-0.000250818207859993,0.0004945807158946991,-0.0004508690908551216
1650870617780437200,11.302437255859376,-0.0020205597393214703,-0.000899437814950943,-0.00047504063695669174
1650870617790447400,11.312447265625,-0.0019712913781404495,0.0017125904560089111,-0.00021644774824380875
1650870617800457200,11.322457275390626,-0.0031503464560955763,-0.0012863092124462128,-0.0002443287521600723
1650870617810466300,11.33246630859375,-0.0009079647716134787,0.00010811910033226013,0.0008731335401535034
1650870617820476400,11.342476318359376,0.0004812616389244795,-0.00036720186471939087,-0.0008690059185028076
1650870617830486300,11.352486328125,0.0006192133296281099,0.00167783722281456,0.0006236955523490906
1650870617840496400,11.362496337890626,0.002153074601665139,0.00016381964087486267,-0.0012614484876394272
1650870617850506200,11.37250634765625,0.0009352110791951418,-0.00038958340883255005,-0.00009604915976524353
1650870617860515300,11.382515380859376,0.0012675549369305372,0.000015605241060256958,-0.0013663042336702347
1650870617870525400,11.392525390625,-0.00014684977941215038,0.0007421150803565979,-0.0006762789562344551
1650870617880535300,11.402535400390626,-0.0004542169626802206,-0.00029411911964416504,-0.00043739285320043564
1650870617890545400,11.41254541015625,-0.0008305215742439032,-0.00019371509552001953,0.0001546274870634079
1650870617900554200,11.42255419921875,0.0002689901739358902,-0.0011387057602405548,-0.00006819982081651688
1650870617910564000,11.432564208984376,-0.0006007982883602381,0.00016784295439720154,-0.0011425185948610306
1650870617920604200,11.442604248046875,-0.0006022823508828878,-0.0012002326548099518,0.00046894513070583344
1650870617930614300,11.4526142578125,-0.0005325076635926962,-0.001029524952173233,0.0016497904434800148
1650870617940624100,11.4626240234375,0.00045905751176178455,0.00016306713223457336,0.0002968590706586838
1650870617950634200,11.47263427734375,0.0013016816228628159,-0.000550929456949234,-0.001212887465953827
1650870617960643300,11.482643310546875,0.0007741309236735106,0.0005866065621376038,0.000022786669433116913
1650870617970653200,11.492653076171875,0.001326470635831356,-0.00019956007599830627,-0.00008720159530639648
1650870617980663300,11.502663330078125,0.0011254858691245317,-0.0005997903645038605,-0.00035025086253881454
1650870617990673400,11.51267333984375,0.0007249463815242052,-0.0007973983883857727,0.0003762589767575264
1650870618000683300,11.522683349609375,0.00022889254614710808,0.00007357820868492126,0.0004872176796197891
1650870618010692400,11.5326923828125,-0.00012024794705212116,-0.00041777268052101135,0.0007375553250312805
1650870618020702500,11.542702392578125,-0.0011868405854329467,-0.0027822479605674744,-0.00006064772605895996
1650870618030712300,11.55271240234375,-0.0014046871801838279,0.00020635128021240234,0.00045360811054706573
1650870618040722400,11.562722412109375,-0.00206604041159153,0.00022030994296073914,0.0004658335819840431
1650870618050731300,11.572731201171875,-0.0023001322988420725,-0.0006044693291187286,0.000394994392991066
1650870618060741000,11.5827412109375,-0.0008129319176077843,-0.0015847794711589813,0.0005671689286828041
1650870618070751200,11.592751220703125,0.0016414374113082886,0.0017130151391029358,0.0010606534779071808
1650870618080770600,11.6027705078125,0.00013479753397405148,0.0025214888155460358,0.00021887850016355515
1650870618090779600,11.612779541015625,0.0014645135961472988,0.0002631284296512604,-0.0010234862565994263
1650870618100789500,11.62278955078125,0.0014666449278593063,-0.00005307048559188843,-0.0010224496945738792
1650870618110799600,11.632799560546875,0.0013366825878620148,0.0000912696123123169,0.00016851630061864853
1650870618120809500,11.6428095703125,0.00043839728459715843,0.0005928054451942444,0.0001078341156244278
1650870618130818600,11.652818603515625,-0.00007852236740291119,0.000586681067943573,-0.0023776935413479805
1650870618140828700,11.66282861328125,-0.0008608186617493629,-0.0019291006028652191,0.00001671072095632553
1650870618150838500,11.672838623046875,-0.0017377975163981318,-0.00023053959012031555,0.00039061810821294785
1650870618160848600,11.6828486328125,-0.0016303990269079804,-0.000639449805021286,0.00009706150740385056
1650870618170858500,11.6928583984375,-0.0008362443186342716,-0.0009941831231117249,-0.000053406693041324615
1650870618180867300,11.702867431640625,0.00036075408570468426,0.00017808005213737488,0.000020176172256469727
1650870618190908400,11.712908447265624,0.0011059064418077469,0.0011472031474113464,0.0016383128240704536
1650870618200917500,11.72291748046875,0.001845968421548605,0.0008129067718982697,-0.00009976886212825775
1650870618210927400,11.73292724609375,0.0019000307656824589,0.0013836249709129333,-0.0013272203505039215
1650870618220937500,11.7429375,0.0010456305462867022,-0.00005372241139411926,-0.0012942953035235405
1650870618230947600,11.752947509765624,0.001540978206321597,-0.00047237053513526917,-0.001742505468428135
1650870618240956700,11.762956787109376,0.001082713482901454,0.0008113794028759003,0.0007950207218527794
1650870618250966500,11.772966552734376,-0.0014883020194247365,0.0019131302833557129,0.0005460148677229881
